{"form":{"sub_id":{"id":"SUB_ID","start":1,"end":null,"notsub":false,"header":{},"page":{"1":{"id":1,"notsub":false,"noncol":false,"position":{"x":72,"y":769,"width":379.361,"height":18},"header":{"dm":{"id":"DM","style":{"color":"#FF0000","background-color":"#BFFFFF"},"element":{"value":"DM(Demographics)","type":"domain","position":{"x":72,"y":769,"width":135.324,"height":18},"identifier":{"form":"sub_id","page":1,"field":"subjid","record":2,"domain":"dm"},"style":{"color":"#FF0000","background-color":"#BFFFFF"}}},"cm":{"id":"CM","style":{"color":"#FF0000","background-color":"#FFFF96"},"element":{"value":"CM(Concomitant/Prior Medications)","type":"domain","position":{"x":207.324,"y":769,"width":244.037,"height":18},"identifier":{"form":"sub_id","page":1,"field":"subjid","record":2,"domain":"cm"},"style":{"color":"#FF0000","background-color":"#FFFF96"}}}},"field":{"enrid":{"id":"ENRID","notsub":false,"noncol":false,"label":"Subject Enrollment ID","record":{"1":{"id":1,"raw":{"CDASHDOM":["SUB"],"CDASHTYPE":"SANOFI","CDASHVAR":"ENRID","CLASS":"question","CRFCODELAB":null,"CRFDES":"Subject Enrollment ID","CRFDOM":"SUB","CRFDS":"SUB_ID","CRFDSLAB":"Subject Identifier","CRFOD":1,"CRFVALUT":null,"CRFVAR":"ENRID","CRFVAROD":1,"CRFVERS":"V1.0_LIVE_30OCT2019_PW","HEIGHT":15.744,"ID":1,"ORDER":1,"PAGENUMBER":1,"WIDTH":108.54,"X":70.866,"Y":666.671},"location":{"x":70.866,"y":666.671,"width":108.54,"height":15.744},"position":{"x":181.406,"y":664.671,"width":1,"height":15.744}}}},"subjid":{"id":"SUBJID","notsub":false,"noncol":false,"label":"Subject Identifier for the Study","record":{"2":{"id":2,"raw":{"CDASHDOM":["CO","DM","CM","EC","EX","PR","SU","AE","CE","DS","DV","HO","MH","DA","DD","EG","IE","LB","MI","PC","PE","SC","RP","SR","VS","FA"],"CDASHTYPE":"IG","CDASHVAR":"SUBJID","CLASS":"question","CRFCODELAB":null,"CRFDES":"Subject Identifier for the Study","CRFDOM":"SUB","CRFDS":"SUB_ID","CRFDSLAB":"Subject Identifier","CRFOD":1,"CRFVALUT":null,"CRFVAR":"SUBJID","CRFVAROD":2,"CRFVERS":"V1.0_LIVE_30OCT2019_PW","HEIGHT":15.744,"ID":2,"ORDER":2,"PAGENUMBER":1,"SDTMTYPE":"IG","WIDTH":149.172,"X":70.866,"Y":649.671},"location":{"x":70.866,"y":649.671,"width":149.172,"height":15.744},"position":{"x":222.038,"y":647.671,"width":118.41900000000001,"height":15.744},"domain":{"dm":{"id":"DM","label":"Demographics","variable":{"country":{"id":"COUNTRY","label":"Country","element":{"value":"COUNTRY","type":"variable","position":{"x":225.038,"y":647.671,"width":67.652,"height":15.744},"identifier":{"form":"sub_id","page":1,"field":"subjid","record":2,"domain":"dm","variable":"country"},"style":{"color":"#FF0000","background-color":"#BFFFFF"}}},"subjid":{"id":"SUBJID","label":"Subject Identifier for the Study","element":{"value":"SUBJID","type":"variable","position":{"x":292.69,"y":647.671,"width":49.767,"height":15.744},"identifier":{"form":"sub_id","page":1,"field":"subjid","record":2,"domain":"dm","variable":"subjid"},"style":{"color":"#FF0000","background-color":"#BFFFFF"}}}}},"cm":{"id":"CM","label":"Concomitant/Prior Medications","variable":{"country":{"id":"COUNTRY","element":{"value":"COUNTRY","type":"variable","position":{"x":225.038,"y":647.671,"width":67.652,"height":15.744},"identifier":{"form":"sub_id","page":1,"field":"subjid","record":2,"domain":"cm","variable":"country"},"style":{"color":"#FF0000","background-color":"#FFFF96"}}},"subjid":{"id":"SUBJID","element":{"value":"SUBJID","type":"variable","position":{"x":292.69,"y":647.671,"width":49.767,"height":15.744},"identifier":{"form":"sub_id","page":1,"field":"subjid","record":2,"domain":"cm","variable":"subjid"},"style":{"color":"#FF0000","background-color":"#FFFF96"}}}}}}}}},"sysdat":{"id":"SYSDAT","notsub":false,"noncol":false,"label":"System Date","record":{"3":{"id":3,"raw":{"CDASHDOM":["SUB"],"CDASHTYPE":"SANOFI","CDASHVAR":"SYSDAT","CLASS":"question","CRFCODELAB":null,"CRFDES":"System Date","CRFDOM":"SUB","CRFDS":"SUB_ID","CRFDSLAB":"Subject Identifier","CRFOD":1,"CRFVALUT":null,"CRFVAR":"SYSDAT","CRFVAROD":3,"CRFVERS":"V1.0_LIVE_30OCT2019_PW","HEIGHT":15.744,"ID":3,"ORDER":3,"PAGENUMBER":1,"WIDTH":60.924,"X":70.866,"Y":632.671},"location":{"x":70.866,"y":632.671,"width":60.924,"height":15.744},"position":{"x":133.79,"y":630.671,"width":1,"height":15.744}}}}}}}},"ivrs_all":{"id":"IVRS_ALL","start":2,"end":null,"notsub":false,"header":{},"page":{"2":{"id":2,"notsub":false,"noncol":false,"position":{"x":72,"y":769,"width":455.11400000000003,"height":18},"header":{"sv":{"id":"SV","style":{"color":"#FF0000","background-color":"#BFFFFF"},"element":{"value":"SV(Subject Visits)","type":"domain","position":{"x":72,"y":769,"width":125.497,"height":18},"identifier":{"form":"ivrs_all","page":2,"field":"visdat","record":4,"domain":"sv"},"style":{"color":"#FF0000","background-color":"#BFFFFF"}}},"ivrs":{"id":"IVRS","style":{"color":"#FF0000","background-color":"#FFFF96"},"element":{"value":"IVRS(IVRS)","type":"domain","position":{"x":197.497,"y":769,"width":84.975,"height":18},"identifier":{"form":"ivrs_all","page":2,"field":"rdvisref","record":6,"domain":"ivrs"},"style":{"color":"#FF0000","background-color":"#FFFF96"}}},"dm":{"id":"DM","style":{"color":"#FF0000","background-color":"#96FF96"},"element":{"value":"DM(Demographics)","type":"domain","position":{"x":282.472,"y":769,"width":135.324,"height":18},"identifier":{"form":"ivrs_all","page":2,"field":"dsstdat","record":7,"domain":"dm"},"style":{"color":"#FF0000","background-color":"#96FF96"}}},"ds":{"id":"DS","style":{"color":"#FF0000","background-color":"#FFBE9B"},"element":{"value":"DS(Disposition)","type":"domain","position":{"x":417.796,"y":769,"width":109.318,"height":18},"identifier":{"form":"ivrs_all","page":2,"field":"dsstdat","record":7,"domain":"ds"},"style":{"color":"#FF0000","background-color":"#FFBE9B"}}}},"field":{"visdat":{"id":"VISDAT","notsub":false,"noncol":false,"label":"First Visit/Screening Date","record":{"4":{"id":4,"raw":{"CDASHDOM":["DA","DD","EG","IE","LB","MI","PC","PE","SC","RP","SR","VS"],"CDASHTYPE":"IG","CDASHVAR":"VISDAT","CLASS":"question","CRFCODELAB":null,"CRFDES":"First Visit/Screening Date","CRFDOM":"IVRS","CRFDS":"IVRS_ALL","CRFDSLAB":"IVRS Library","CRFOD":2,"CRFVALUT":null,"CRFVAR":"VISDAT","CRFVAROD":1,"CRFVERS":"V1.0_LIVE_30OCT2019_PW","HEIGHT":15.744,"ID":4,"ORDER":1,"PAGENUMBER":2,"SDTMDOM":["SV"],"SDTMTYPE":"SANOFI","SDTMVAR":["SVENDTC","SVSTDTC"],"WIDTH":125.172,"X":70.866,"Y":666.671},"location":{"x":70.866,"y":666.671,"width":125.172,"height":15.744},"position":{"x":198.038,"y":664.671,"width":130.73000000000002,"height":15.744},"domain":{"sv":{"id":"SV","label":"Subject Visits","variable":{"svendtc":{"id":"SVENDTC","label":"End Date/Time of Visit","element":{"value":"SVENDTC","type":"variable","position":{"x":201.038,"y":664.671,"width":65.578,"height":15.744},"identifier":{"form":"ivrs_all","page":2,"field":"visdat","record":4,"domain":"sv","variable":"svendtc"},"style":{"color":"#FF0000","background-color":"#BFFFFF"}}},"svstdtc":{"id":"SVSTDTC","label":"Start Date/Time of Visit","element":{"value":"SVSTDTC","type":"variable","position":{"x":266.616,"y":664.671,"width":64.152,"height":15.744},"identifier":{"form":"ivrs_all","page":2,"field":"visdat","record":4,"domain":"sv","variable":"svstdtc"},"style":{"color":"#FF0000","background-color":"#BFFFFF"}}}}}}}}},"dsrudat":{"id":"DSRUDAT","notsub":false,"noncol":false,"label":"First Run In Visit Date","record":{"5":{"id":5,"raw":{"CDASHDOM":["IVRS"],"CDASHTYPE":"SANOFI","CDASHVAR":"DSRUDAT","CLASS":"question","CRFCODELAB":null,"CRFDES":"First Run In Visit Date","CRFDOM":"IVRS","CRFDS":"IVRS_ALL","CRFDSLAB":"IVRS Library","CRFOD":2,"CRFVALUT":null,"CRFVAR":"DSRUDAT","CRFVAROD":2,"CRFVERS":"V1.0_LIVE_30OCT2019_PW","HEIGHT":15.744,"ID":5,"ORDER":2,"PAGENUMBER":2,"WIDTH":109.896,"X":70.866,"Y":649.671},"location":{"x":70.866,"y":649.671,"width":109.896,"height":15.744},"position":{"x":182.762,"y":647.671,"width":1,"height":15.744}}}},"rdvisref":{"id":"RDVISREF","notsub":false,"noncol":false,"label":"Visit Identifier","record":{"6":{"id":6,"raw":{"CDASHDOM":["IVRS"],"CDASHTYPE":"SANOFI","CDASHVAR":"RDVISREF","CLASS":"question","CRFCODELAB":null,"CRFDES":"Visit Identifier","CRFDOM":"IVRS","CRFDS":"IVRS_ALL","CRFDSLAB":"IVRS Library","CRFOD":2,"CRFVALUT":null,"CRFVAR":"RDVISREF","CRFVAROD":3,"CRFVERS":"V1.0_LIVE_30OCT2019_PW","HEIGHT":15.744,"ID":6,"ORDER":3,"PAGENUMBER":2,"SDTMDOM":["IVRS"],"SDTMTYPE":"SANOFI","SDTMVAR":["RDVISREF"],"WIDTH":70.896,"X":70.866,"Y":632.671},"location":{"x":70.866,"y":632.671,"width":70.896,"height":15.744},"position":{"x":143.762,"y":630.671,"width":70.207,"height":15.744},"domain":{"ivrs":{"id":"IVRS","label":"IVRS","variable":{"rdvisref":{"id":"RDVISREF","element":{"value":"RDVISREF","type":"variable","position":{"x":146.762,"y":630.671,"width":69.207,"height":15.744},"identifier":{"form":"ivrs_all","page":2,"field":"rdvisref","record":6,"domain":"ivrs","variable":"rdvisref"},"style":{"color":"#FF0000","background-color":"#FFFF96"}}}}}}}}},"dsstdat":{"id":"DSSTDAT","notsub":false,"noncol":false,"label":"Randomization Date/First IMP Allocation Date","record":{"7":{"id":7,"raw":{"CDASHDOM":["DS"],"CDASHTYPE":"IG","CDASHVAR":"DSSTDAT","CLASS":"question","CLONE":true,"CRFCODELAB":null,"CRFDES":"Randomization Date/First IMP Allocation Date","CRFDOM":"IVRS","CRFDS":"IVRS_ALL","CRFDSLAB":"IVRS Library","CRFOD":2,"CRFVALUT":null,"CRFVAR":"DSSTDAT","CRFVAROD":4,"CRFVERS":"V1.0_LIVE_30OCT2019_PW","HEIGHT":15.744,"ID":7,"ORDER":4,"PAGENUMBER":2,"SDTMTYPE":"IG","WIDTH":227.712,"X":70,"Y":615.671},"location":{"x":70,"y":615.671,"width":227.712,"height":15.744},"position":{"x":299.712,"y":613.671,"width":61.394,"height":15.744},"domain":{"dm":{"id":"DM","label":"Demographics","variable":{"rficdtc":{"id":"RFICDTC","label":"Date/Time of Informed Consent","element":{"value":"RFICDTC","type":"variable","position":{"x":302.712,"y":613.671,"width":60.394,"height":15.744},"identifier":{"form":"ivrs_all","page":2,"field":"dsstdat","record":7,"domain":"dm","variable":"rficdtc"},"style":{"color":"#FF0000","background-color":"#96FF96"}}}}},"ds":{"id":"DS","label":"Disposition","variable":{"dsdtc":{"id":"DSDTC","label":"Date/Time of Collection","element":{"value":"DSDTC","type":"variable","position":{"x":307.712,"y":613.671,"width":48.212,"height":15.744},"identifier":{"form":"ivrs_all","page":2,"field":"dsstdat","record":7,"domain":"ds","variable":"dsdtc"},"style":{"color":"#FF0000","background-color":"#FFBE9B"}}},"dsstdtc":{"id":"DSSTDTC","label":"Start Date/Time of Disposition Event","element":{"value":"DSSTDTC","type":"variable","position":{"x":355.924,"y":613.671,"width":64.801,"height":15.744},"identifier":{"form":"ivrs_all","page":2,"field":"dsstdat","record":7,"domain":"ds","variable":"dsstdtc"},"style":{"color":"#FF0000","background-color":"#FFBE9B"}}}}},"ivrs":{"id":"IVRS","label":"IVRS","variable":{"dsstadtc":{"id":"DSSTADTC","element":{"value":"DSSTADTC","type":"variable","position":{"x":312.712,"y":613.671,"width":73.484,"height":15.744},"identifier":{"form":"ivrs_all","page":2,"field":"dsstdat","record":7,"domain":"ivrs","variable":"dsstadtc"},"style":{"color":"#FF0000","background-color":"#FFFF96"}}}}}}}}},"dssttim":{"id":"DSSTTIM","notsub":false,"noncol":false,"label":"Randomization Time/First IMP Allocation Time","record":{"8":{"id":8,"raw":{"CDASHDOM":["DS"],"CDASHTYPE":"IG","CDASHVAR":"DSSTTIM","CLASS":"question","CRFCODELAB":null,"CRFDES":"Randomization Time/First IMP Allocation Time","CRFDOM":"IVRS","CRFDS":"IVRS_ALL","CRFDSLAB":"IVRS Library","CRFOD":2,"CRFVALUT":null,"CRFVAR":"DSSTTIM","CRFVAROD":5,"CRFVERS":"V1.0_LIVE_30OCT2019_PW","HEIGHT":15.744,"ID":8,"ORDER":5,"PAGENUMBER":2,"SDTMDOM":["DS","IVRS"],"SDTMTYPE":"IG","SDTMVAR":["DSSTADTC","DSSTDTC"],"WIDTH":233.04,"X":70.866,"Y":598.671},"location":{"x":70.866,"y":598.671,"width":233.04,"height":15.744},"position":{"x":305.906,"y":596.671,"width":277.57,"height":15.744},"domain":{"ds":{"id":"DS","label":"Disposition","variable":{"dsstadtc":{"id":"DSSTADTC","element":{"value":"DSSTADTC","type":"variable","position":{"x":308.906,"y":596.671,"width":73.484,"height":15.744},"identifier":{"form":"ivrs_all","page":2,"field":"dssttim","record":8,"domain":"ds","variable":"dsstadtc"},"style":{"color":"#FF0000","background-color":"#FFBE9B"}}},"dsstdtc":{"id":"DSSTDTC","label":"Start Date/Time of Disposition Event","element":{"value":"DSSTDTC","type":"variable","position":{"x":382.39,"y":596.671,"width":64.801,"height":15.744},"identifier":{"form":"ivrs_all","page":2,"field":"dssttim","record":8,"domain":"ds","variable":"dsstdtc"},"style":{"color":"#FF0000","background-color":"#FFBE9B"}}}}},"ivrs":{"id":"IVRS","label":"IVRS","variable":{"dsstadtc":{"id":"DSSTADTC","element":{"value":"DSSTADTC","type":"variable","position":{"x":447.19100000000003,"y":596.671,"width":73.484,"height":15.744},"identifier":{"form":"ivrs_all","page":2,"field":"dssttim","record":8,"domain":"ivrs","variable":"dsstadtc"},"style":{"color":"#FF0000","background-color":"#FFFF96"}}},"dsstdtc":{"id":"DSSTDTC","element":{"value":"DSSTDTC","type":"variable","position":{"x":520.675,"y":596.671,"width":64.801,"height":15.744},"identifier":{"form":"ivrs_all","page":2,"field":"dssttim","record":8,"domain":"ivrs","variable":"dsstdtc"},"style":{"color":"#FF0000","background-color":"#FFFF96"}}}}}}}}},"rdrand":{"id":"RDRAND","notsub":false,"noncol":false,"label":"Randomization Number","record":{"9":{"id":9,"raw":{"CDASHDOM":["IVRS"],"CDASHTYPE":"SANOFI","CDASHVAR":"RDRAND","CLASS":"question","CRFCODELAB":null,"CRFDES":"Randomization Number","CRFDOM":"IVRS","CRFDS":"IVRS_ALL","CRFDSLAB":"IVRS Library","CRFOD":2,"CRFVALUT":null,"CRFVAR":"RDRAND","CRFVAROD":6,"CRFVERS":"V1.0_LIVE_30OCT2019_PW","HEIGHT":15.744,"ID":9,"ORDER":6,"PAGENUMBER":2,"SDTMDOM":["IVRS"],"SDTMTYPE":"SANOFI","SDTMVAR":["RDRAND"],"WIDTH":115.536,"X":70.866,"Y":581.671},"location":{"x":70.866,"y":581.671,"width":115.536,"height":15.744},"position":{"x":188.402,"y":579.671,"width":59.968,"height":15.744},"domain":{"ivrs":{"id":"IVRS","label":"IVRS","variable":{"rdrand":{"id":"RDRAND","element":{"value":"RDRAND","type":"variable","position":{"x":191.402,"y":579.671,"width":58.968,"height":15.744},"identifier":{"form":"ivrs_all","page":2,"field":"rdrand","record":9,"domain":"ivrs","variable":"rdrand"},"style":{"color":"#FF0000","background-color":"#FFFF96"}}}}}}}}},"rdblknb":{"id":"RDBLKNB","notsub":false,"noncol":false,"label":"Randomization Block Number","record":{"10":{"id":10,"raw":{"CDASHDOM":["IVRS"],"CDASHTYPE":"SANOFI","CDASHVAR":"RDBLKNB","CLASS":"question","CRFCODELAB":null,"CRFDES":"Randomization Block Number","CRFDOM":"IVRS","CRFDS":"IVRS_ALL","CRFDSLAB":"IVRS Library","CRFOD":2,"CRFVALUT":null,"CRFVAR":"RDBLKNB","CRFVAROD":7,"CRFVERS":"V1.0_LIVE_30OCT2019_PW","HEIGHT":15.744,"ID":10,"ORDER":7,"PAGENUMBER":2,"SDTMDOM":["IVRS"],"SDTMTYPE":"SANOFI","SDTMVAR":["RDBLKNB"],"WIDTH":147.168,"X":70.866,"Y":564.671},"location":{"x":70.866,"y":564.671,"width":147.168,"height":15.744},"position":{"x":220.034,"y":562.671,"width":65.93,"height":15.744},"domain":{"ivrs":{"id":"IVRS","label":"IVRS","variable":{"rdblknb":{"id":"RDBLKNB","element":{"value":"RDBLKNB","type":"variable","position":{"x":223.034,"y":562.671,"width":64.93,"height":15.744},"identifier":{"form":"ivrs_all","page":2,"field":"rdblknb","record":10,"domain":"ivrs","variable":"rdblknb"},"style":{"color":"#FF0000","background-color":"#FFFF96"}}}}}}}}},"rdseqnb":{"id":"RDSEQNB","notsub":false,"noncol":false,"label":"Randomization Sequence Number","record":{"11":{"id":11,"raw":{"CDASHDOM":["IVRS"],"CDASHTYPE":"SANOFI","CDASHVAR":"RDSEQNB","CLASS":"question","CRFCODELAB":null,"CRFDES":"Randomization Sequence Number","CRFDOM":"IVRS","CRFDS":"IVRS_ALL","CRFDSLAB":"IVRS Library","CRFOD":2,"CRFVALUT":null,"CRFVAR":"RDSEQNB","CRFVAROD":8,"CRFVERS":"V1.0_LIVE_30OCT2019_PW","HEIGHT":15.744,"ID":11,"ORDER":8,"PAGENUMBER":2,"SDTMDOM":["IVRS"],"SDTMTYPE":"SANOFI","SDTMVAR":["RDSEQNB"],"WIDTH":164.472,"X":70.866,"Y":547.671},"location":{"x":70.866,"y":547.671,"width":164.472,"height":15.744},"position":{"x":237.33800000000002,"y":545.671,"width":68.781,"height":15.744},"domain":{"ivrs":{"id":"IVRS","label":"IVRS","variable":{"rdseqnb":{"id":"RDSEQNB","element":{"value":"RDSEQNB","type":"variable","position":{"x":240.33800000000002,"y":545.671,"width":67.781,"height":15.744},"identifier":{"form":"ivrs_all","page":2,"field":"rdseqnb","record":11,"domain":"ivrs","variable":"rdseqnb"},"style":{"color":"#FF0000","background-color":"#FFFF96"}}}}}}}}},"rdstrat1":{"id":"RDSTRAT1","notsub":false,"noncol":false,"label":"Stratification Factor 1","record":{"12":{"id":12,"raw":{"CDASHDOM":["IVRS"],"CDASHTYPE":"SANOFI","CDASHVAR":"RDSTRAT1","CLASS":"question","CRFCODELAB":null,"CRFDES":"Stratification Factor 1","CRFDOM":"IVRS","CRFDS":"IVRS_ALL","CRFDSLAB":"IVRS Library","CRFOD":2,"CRFVALUT":null,"CRFVAR":"RDSTRAT1","CRFVAROD":9,"CRFVERS":"V1.0_LIVE_30OCT2019_PW","HEIGHT":15.744,"ID":12,"ORDER":9,"PAGENUMBER":2,"SDTMDOM":["DM","IVRS"],"SDTMTYPE":"SANOFI","SDTMVAR":["RDSTRAT1","STRATUM"],"WIDTH":105.18,"X":70.866,"Y":530.671},"location":{"x":70.866,"y":530.671,"width":105.18,"height":15.744},"position":{"x":178.046,"y":528.671,"width":277.568,"height":15.744},"domain":{"dm":{"id":"DM","label":"Demographics","variable":{"rdstrat1":{"id":"RDSTRAT1","element":{"value":"RDSTRAT1","type":"variable","position":{"x":181.046,"y":528.671,"width":72.058,"height":15.744},"identifier":{"form":"ivrs_all","page":2,"field":"rdstrat1","record":12,"domain":"dm","variable":"rdstrat1"},"style":{"color":"#FF0000","background-color":"#96FF96"}}},"stratum":{"id":"STRATUM","label":"Stratum","dataset":"SUPPDM","element":{"value":"STRATUM","type":"variable","position":{"x":253.10399999999998,"y":528.671,"width":66.226,"height":15.744},"identifier":{"form":"ivrs_all","page":2,"field":"rdstrat1","record":12,"domain":"dm","variable":"stratum"},"style":{"color":"#FF0000","background-color":"#96FF96"}}}}},"ivrs":{"id":"IVRS","label":"IVRS","variable":{"rdstrat1":{"id":"RDSTRAT1","element":{"value":"RDSTRAT1","type":"variable","position":{"x":319.33,"y":528.671,"width":72.058,"height":15.744},"identifier":{"form":"ivrs_all","page":2,"field":"rdstrat1","record":12,"domain":"ivrs","variable":"rdstrat1"},"style":{"color":"#FF0000","background-color":"#FFFF96"}}},"stratum":{"id":"STRATUM","element":{"value":"STRATUM","type":"variable","position":{"x":391.388,"y":528.671,"width":66.226,"height":15.744},"identifier":{"form":"ivrs_all","page":2,"field":"rdstrat1","record":12,"domain":"ivrs","variable":"stratum"},"style":{"color":"#FF0000","background-color":"#FFFF96"}}}}}}}}},"rdstrat2":{"id":"RDSTRAT2","notsub":false,"noncol":false,"label":"Stratification Factor 2","record":{"13":{"id":13,"raw":{"CDASHDOM":["IVRS"],"CDASHTYPE":"SANOFI","CDASHVAR":"RDSTRAT2","CLASS":"question","CRFCODELAB":null,"CRFDES":"Stratification Factor 2","CRFDOM":"IVRS","CRFDS":"IVRS_ALL","CRFDSLAB":"IVRS Library","CRFOD":2,"CRFVALUT":null,"CRFVAR":"RDSTRAT2","CRFVAROD":10,"CRFVERS":"V1.0_LIVE_30OCT2019_PW","HEIGHT":15.744,"ID":13,"ORDER":10,"PAGENUMBER":2,"SDTMDOM":["DM","IVRS"],"SDTMTYPE":"SANOFI","SDTMVAR":["RDSTRAT2","STRATUM2"],"WIDTH":105.18,"X":70.866,"Y":513.671},"location":{"x":70.866,"y":513.672,"width":105.18,"height":15.744},"position":{"x":178.046,"y":511.672,"width":292.084,"height":15.744},"domain":{"dm":{"id":"DM","label":"Demographics","variable":{"rdstrat2":{"id":"RDSTRAT2","element":{"value":"RDSTRAT2","type":"variable","position":{"x":181.046,"y":511.672,"width":72.058,"height":15.744},"identifier":{"form":"ivrs_all","page":2,"field":"rdstrat2","record":13,"domain":"dm","variable":"rdstrat2"},"style":{"color":"#FF0000","background-color":"#96FF96"}}},"stratum2":{"id":"STRATUM2","label":"Stratum 2","dataset":"SUPPDM","element":{"value":"STRATUM2","type":"variable","position":{"x":253.10399999999998,"y":511.672,"width":73.484,"height":15.744},"identifier":{"form":"ivrs_all","page":2,"field":"rdstrat2","record":13,"domain":"dm","variable":"stratum2"},"style":{"color":"#FF0000","background-color":"#96FF96"}}}}},"ivrs":{"id":"IVRS","label":"IVRS","variable":{"rdstrat2":{"id":"RDSTRAT2","element":{"value":"RDSTRAT2","type":"variable","position":{"x":326.58799999999997,"y":511.672,"width":72.058,"height":15.744},"identifier":{"form":"ivrs_all","page":2,"field":"rdstrat2","record":13,"domain":"ivrs","variable":"rdstrat2"},"style":{"color":"#FF0000","background-color":"#FFFF96"}}},"stratum2":{"id":"STRATUM2","element":{"value":"STRATUM2","type":"variable","position":{"x":398.646,"y":511.672,"width":73.484,"height":15.744},"identifier":{"form":"ivrs_all","page":2,"field":"rdstrat2","record":13,"domain":"ivrs","variable":"stratum2"},"style":{"color":"#FF0000","background-color":"#FFFF96"}}}}}}}}},"rdstrat3":{"id":"RDSTRAT3","notsub":false,"noncol":false,"label":"Stratification Factor 3","record":{"14":{"id":14,"raw":{"CDASHDOM":["IVRS"],"CDASHTYPE":"SANOFI","CDASHVAR":"RDSTRAT3","CLASS":"question","CRFCODELAB":null,"CRFDES":"Stratification Factor 3","CRFDOM":"IVRS","CRFDS":"IVRS_ALL","CRFDSLAB":"IVRS Library","CRFOD":2,"CRFVALUT":null,"CRFVAR":"RDSTRAT3","CRFVAROD":11,"CRFVERS":"V1.0_LIVE_30OCT2019_PW","HEIGHT":15.744,"ID":14,"ORDER":11,"PAGENUMBER":2,"SDTMDOM":["DM","IVRS"],"SDTMTYPE":"SANOFI","SDTMVAR":["RDSTRAT3","STRATUM3"],"WIDTH":105.18,"X":70.866,"Y":496.671},"location":{"x":70.866,"y":496.671,"width":105.18,"height":15.744},"position":{"x":178.046,"y":494.671,"width":292.084,"height":15.744},"domain":{"dm":{"id":"DM","label":"Demographics","variable":{"rdstrat3":{"id":"RDSTRAT3","element":{"value":"RDSTRAT3","type":"variable","position":{"x":181.046,"y":494.671,"width":72.058,"height":15.744},"identifier":{"form":"ivrs_all","page":2,"field":"rdstrat3","record":14,"domain":"dm","variable":"rdstrat3"},"style":{"color":"#FF0000","background-color":"#96FF96"}}},"stratum3":{"id":"STRATUM3","label":"Stratum 3","dataset":"SUPPDM","element":{"value":"STRATUM3","type":"variable","position":{"x":253.10399999999998,"y":494.671,"width":73.484,"height":15.744},"identifier":{"form":"ivrs_all","page":2,"field":"rdstrat3","record":14,"domain":"dm","variable":"stratum3"},"style":{"color":"#FF0000","background-color":"#96FF96"}}}}},"ivrs":{"id":"IVRS","label":"IVRS","variable":{"rdstrat3":{"id":"RDSTRAT3","element":{"value":"RDSTRAT3","type":"variable","position":{"x":326.58799999999997,"y":494.671,"width":72.058,"height":15.744},"identifier":{"form":"ivrs_all","page":2,"field":"rdstrat3","record":14,"domain":"ivrs","variable":"rdstrat3"},"style":{"color":"#FF0000","background-color":"#FFFF96"}}},"stratum3":{"id":"STRATUM3","element":{"value":"STRATUM3","type":"variable","position":{"x":398.646,"y":494.671,"width":73.484,"height":15.744},"identifier":{"form":"ivrs_all","page":2,"field":"rdstrat3","record":14,"domain":"ivrs","variable":"stratum3"},"style":{"color":"#FF0000","background-color":"#FFFF96"}}}}}}}}},"rdstrat4":{"id":"RDSTRAT4","notsub":false,"noncol":false,"label":"Stratification Factor 4","record":{"15":{"id":15,"raw":{"CDASHDOM":["IVRS"],"CDASHTYPE":"SANOFI","CDASHVAR":"RDSTRAT4","CLASS":"question","CRFCODELAB":null,"CRFDES":"Stratification Factor 4","CRFDOM":"IVRS","CRFDS":"IVRS_ALL","CRFDSLAB":"IVRS Library","CRFOD":2,"CRFVALUT":null,"CRFVAR":"RDSTRAT4","CRFVAROD":12,"CRFVERS":"V1.0_LIVE_30OCT2019_PW","HEIGHT":15.744,"ID":15,"ORDER":12,"PAGENUMBER":2,"SDTMDOM":["DM","IVRS"],"SDTMTYPE":"SANOFI","SDTMVAR":["RDSTRAT4","STRATUM4"],"WIDTH":105.18,"X":70.866,"Y":479.671},"location":{"x":70.866,"y":479.671,"width":105.18,"height":15.744},"position":{"x":178.046,"y":477.671,"width":292.084,"height":15.744},"domain":{"dm":{"id":"DM","label":"Demographics","variable":{"rdstrat4":{"id":"RDSTRAT4","element":{"value":"RDSTRAT4","type":"variable","position":{"x":181.046,"y":477.671,"width":72.058,"height":15.744},"identifier":{"form":"ivrs_all","page":2,"field":"rdstrat4","record":15,"domain":"dm","variable":"rdstrat4"},"style":{"color":"#FF0000","background-color":"#96FF96"}}},"stratum4":{"id":"STRATUM4","label":"Stratum 4","dataset":"SUPPDM","element":{"value":"STRATUM4","type":"variable","position":{"x":253.10399999999998,"y":477.671,"width":73.484,"height":15.744},"identifier":{"form":"ivrs_all","page":2,"field":"rdstrat4","record":15,"domain":"dm","variable":"stratum4"},"style":{"color":"#FF0000","background-color":"#96FF96"}}}}},"ivrs":{"id":"IVRS","label":"IVRS","variable":{"rdstrat4":{"id":"RDSTRAT4","element":{"value":"RDSTRAT4","type":"variable","position":{"x":326.58799999999997,"y":477.671,"width":72.058,"height":15.744},"identifier":{"form":"ivrs_all","page":2,"field":"rdstrat4","record":15,"domain":"ivrs","variable":"rdstrat4"},"style":{"color":"#FF0000","background-color":"#FFFF96"}}},"stratum4":{"id":"STRATUM4","element":{"value":"STRATUM4","type":"variable","position":{"x":398.646,"y":477.671,"width":73.484,"height":15.744},"identifier":{"form":"ivrs_all","page":2,"field":"rdstrat4","record":15,"domain":"ivrs","variable":"stratum4"},"style":{"color":"#FF0000","background-color":"#FFFF96"}}}}}}}}},"rdstrat5":{"id":"RDSTRAT5","notsub":false,"noncol":false,"label":"Stratification Factor 5","record":{"16":{"id":16,"raw":{"CDASHDOM":["IVRS"],"CDASHTYPE":"SANOFI","CDASHVAR":"RDSTRAT5","CLASS":"question","CRFCODELAB":null,"CRFDES":"Stratification Factor 5","CRFDOM":"IVRS","CRFDS":"IVRS_ALL","CRFDSLAB":"IVRS Library","CRFOD":2,"CRFVALUT":null,"CRFVAR":"RDSTRAT5","CRFVAROD":13,"CRFVERS":"V1.0_LIVE_30OCT2019_PW","HEIGHT":15.744,"ID":16,"ORDER":13,"PAGENUMBER":2,"SDTMDOM":["DM","IVRS"],"SDTMTYPE":"SANOFI","SDTMVAR":["RDSTRAT5","STRATUM5"],"WIDTH":105.18,"X":70.866,"Y":462.671},"location":{"x":70.866,"y":462.671,"width":105.18,"height":15.744},"position":{"x":178.046,"y":460.671,"width":292.084,"height":15.744},"domain":{"dm":{"id":"DM","label":"Demographics","variable":{"rdstrat5":{"id":"RDSTRAT5","element":{"value":"RDSTRAT5","type":"variable","position":{"x":181.046,"y":460.671,"width":72.058,"height":15.744},"identifier":{"form":"ivrs_all","page":2,"field":"rdstrat5","record":16,"domain":"dm","variable":"rdstrat5"},"style":{"color":"#FF0000","background-color":"#96FF96"}}},"stratum5":{"id":"STRATUM5","label":"Stratum 5","dataset":"SUPPDM","element":{"value":"STRATUM5","type":"variable","position":{"x":253.10399999999998,"y":460.671,"width":73.484,"height":15.744},"identifier":{"form":"ivrs_all","page":2,"field":"rdstrat5","record":16,"domain":"dm","variable":"stratum5"},"style":{"color":"#FF0000","background-color":"#96FF96"}}}}},"ivrs":{"id":"IVRS","label":"IVRS","variable":{"rdstrat5":{"id":"RDSTRAT5","element":{"value":"RDSTRAT5","type":"variable","position":{"x":326.58799999999997,"y":460.671,"width":72.058,"height":15.744},"identifier":{"form":"ivrs_all","page":2,"field":"rdstrat5","record":16,"domain":"ivrs","variable":"rdstrat5"},"style":{"color":"#FF0000","background-color":"#FFFF96"}}},"stratum5":{"id":"STRATUM5","element":{"value":"STRATUM5","type":"variable","position":{"x":398.646,"y":460.671,"width":73.484,"height":15.744},"identifier":{"form":"ivrs_all","page":2,"field":"rdstrat5","record":16,"domain":"ivrs","variable":"stratum5"},"style":{"color":"#FF0000","background-color":"#FFFF96"}}}}}}}}},"rdttnbx":{"id":"RDTTNBX","notsub":false,"noncol":false,"label":"Treatment Number as Planned","record":{"17":{"id":17,"raw":{"CDASHDOM":["IVRS"],"CDASHTYPE":"SANOFI","CDASHVAR":"RDTTNBX","CLASS":"question","CRFCODELAB":null,"CRFDES":"Treatment Number as Planned","CRFDOM":"IVRS","CRFDS":"IVRS_ALL","CRFDSLAB":"IVRS Library","CRFOD":2,"CRFVALUT":null,"CRFVAR":"RDTTNBX","CRFVAROD":14,"CRFVERS":"V1.0_LIVE_30OCT2019_PW","HEIGHT":15.744,"ID":17,"ORDER":14,"PAGENUMBER":2,"SDTMDOM":["IVRS"],"SDTMTYPE":"SANOFI","SDTMVAR":["RDTTNBX"],"WIDTH":146.148,"X":70.866,"Y":445.671},"location":{"x":70.866,"y":445.671,"width":146.148,"height":15.744},"position":{"x":219.014,"y":443.671,"width":65.801,"height":15.744},"domain":{"ivrs":{"id":"IVRS","label":"IVRS","variable":{"rdttnbx":{"id":"RDTTNBX","element":{"value":"RDTTNBX","type":"variable","position":{"x":222.014,"y":443.671,"width":64.801,"height":15.744},"identifier":{"form":"ivrs_all","page":2,"field":"rdttnbx","record":17,"domain":"ivrs","variable":"rdttnbx"},"style":{"color":"#FF0000","background-color":"#FFFF96"}}}}}}}}},"rdarm":{"id":"RDARM","notsub":false,"noncol":false,"label":"Treatment Arm as Planned","record":{"18":{"id":18,"raw":{"CDASHDOM":["IVRS"],"CDASHTYPE":"SANOFI","CDASHVAR":"RDARM","CLASS":"question","CRFCODELAB":null,"CRFDES":"Treatment Arm as Planned","CRFDOM":"IVRS","CRFDS":"IVRS_ALL","CRFDSLAB":"IVRS Library","CRFOD":2,"CRFVALUT":null,"CRFVAR":"RDARM","CRFVAROD":15,"CRFVERS":"V1.0_LIVE_30OCT2019_PW","HEIGHT":15.744,"ID":18,"ORDER":15,"PAGENUMBER":2,"SDTMDOM":["IVRS"],"SDTMTYPE":"SANOFI","SDTMVAR":["RDARM"],"WIDTH":128.832,"X":70.866,"Y":428.671},"location":{"x":70.866,"y":428.671,"width":128.832,"height":15.744},"position":{"x":201.69799999999998,"y":426.671,"width":52.063,"height":15.744},"domain":{"ivrs":{"id":"IVRS","label":"IVRS","variable":{"rdarm":{"id":"RDARM","element":{"value":"RDARM","type":"variable","position":{"x":204.69799999999998,"y":426.671,"width":51.063,"height":15.744},"identifier":{"form":"ivrs_all","page":2,"field":"rdarm","record":18,"domain":"ivrs","variable":"rdarm"},"style":{"color":"#FF0000","background-color":"#FFFF96"}}}}}}}}},"rdgroup1":{"id":"RDGROUP1","notsub":false,"noncol":false,"label":"Subgroup Information as Planned 1","record":{"19":{"id":19,"raw":{"CDASHDOM":["IVRS"],"CDASHTYPE":"SANOFI","CDASHVAR":"RDGROUP1","CLASS":"question","CRFCODELAB":null,"CRFDES":"Subgroup Information as Planned 1","CRFDOM":"IVRS","CRFDS":"IVRS_ALL","CRFDSLAB":"IVRS Library","CRFOD":2,"CRFVALUT":null,"CRFVAR":"RDGROUP1","CRFVAROD":16,"CRFVERS":"V1.0_LIVE_30OCT2019_PW","HEIGHT":15.744,"ID":19,"ORDER":16,"PAGENUMBER":2,"SDTMDOM":["IVRS"],"SDTMTYPE":"SANOFI","SDTMVAR":["RDGROUP1"],"WIDTH":170.556,"X":70.866,"Y":411.671},"location":{"x":70.866,"y":411.671,"width":170.556,"height":15.744},"position":{"x":243.42200000000003,"y":409.671,"width":78.112,"height":15.744},"domain":{"ivrs":{"id":"IVRS","label":"IVRS","variable":{"rdgroup1":{"id":"RDGROUP1","element":{"value":"RDGROUP1","type":"variable","position":{"x":246.42200000000003,"y":409.671,"width":77.112,"height":15.744},"identifier":{"form":"ivrs_all","page":2,"field":"rdgroup1","record":19,"domain":"ivrs","variable":"rdgroup1"},"style":{"color":"#FF0000","background-color":"#FFFF96"}}}}}}}}},"rdgroup2":{"id":"RDGROUP2","notsub":false,"noncol":false,"label":"Subgroup Information as Planned 2","record":{"20":{"id":20,"raw":{"CDASHDOM":["IVRS"],"CDASHTYPE":"SANOFI","CDASHVAR":"RDGROUP2","CLASS":"question","CRFCODELAB":null,"CRFDES":"Subgroup Information as Planned 2","CRFDOM":"IVRS","CRFDS":"IVRS_ALL","CRFDSLAB":"IVRS Library","CRFOD":2,"CRFVALUT":null,"CRFVAR":"RDGROUP2","CRFVAROD":17,"CRFVERS":"V1.0_LIVE_30OCT2019_PW","HEIGHT":15.744,"ID":20,"ORDER":17,"PAGENUMBER":2,"SDTMDOM":["IVRS"],"SDTMTYPE":"SANOFI","SDTMVAR":["RDGROUP2"],"WIDTH":170.556,"X":70.866,"Y":394.671},"location":{"x":70.866,"y":394.671,"width":170.556,"height":15.744},"position":{"x":243.42200000000003,"y":392.671,"width":78.112,"height":15.744},"domain":{"ivrs":{"id":"IVRS","label":"IVRS","variable":{"rdgroup2":{"id":"RDGROUP2","element":{"value":"RDGROUP2","type":"variable","position":{"x":246.42200000000003,"y":392.671,"width":77.112,"height":15.744},"identifier":{"form":"ivrs_all","page":2,"field":"rdgroup2","record":20,"domain":"ivrs","variable":"rdgroup2"},"style":{"color":"#FF0000","background-color":"#FFFF96"}}}}}}}}},"rdgroup3":{"id":"RDGROUP3","notsub":false,"noncol":false,"label":"Subgroup Information as Planned 3","record":{"21":{"id":21,"raw":{"CDASHDOM":["IVRS"],"CDASHTYPE":"SANOFI","CDASHVAR":"RDGROUP3","CLASS":"question","CRFCODELAB":null,"CRFDES":"Subgroup Information as Planned 3","CRFDOM":"IVRS","CRFDS":"IVRS_ALL","CRFDSLAB":"IVRS Library","CRFOD":2,"CRFVALUT":null,"CRFVAR":"RDGROUP3","CRFVAROD":18,"CRFVERS":"V1.0_LIVE_30OCT2019_PW","HEIGHT":15.744,"ID":21,"ORDER":18,"PAGENUMBER":2,"SDTMDOM":["IVRS"],"SDTMTYPE":"SANOFI","SDTMVAR":["RDGROUP3"],"WIDTH":170.556,"X":70.866,"Y":377.671},"location":{"x":70.866,"y":377.671,"width":170.556,"height":15.744},"position":{"x":243.42200000000003,"y":375.671,"width":78.112,"height":15.744},"domain":{"ivrs":{"id":"IVRS","label":"IVRS","variable":{"rdgroup3":{"id":"RDGROUP3","element":{"value":"RDGROUP3","type":"variable","position":{"x":246.42200000000003,"y":375.671,"width":77.112,"height":15.744},"identifier":{"form":"ivrs_all","page":2,"field":"rdgroup3","record":21,"domain":"ivrs","variable":"rdgroup3"},"style":{"color":"#FF0000","background-color":"#FFFF96"}}}}}}}}},"rdside":{"id":"RDSIDE","notsub":false,"noncol":false,"label":"Treatment Side as Planned","record":{"22":{"id":22,"raw":{"CDASHDOM":["IVRS"],"CDASHTYPE":"SANOFI","CDASHVAR":"RDSIDE","CLASS":"question","CRFCODE":["LEFT","RIGHT"],"CRFCODELAB":["Left","Right"],"CRFDES":"Treatment Side as Planned","CRFDIC":"LAT_01","CRFDOM":"IVRS","CRFDS":"IVRS_ALL","CRFDSLAB":"IVRS Library","CRFOD":2,"CRFVALUT":null,"CRFVAR":"RDSIDE","CRFVAROD":19,"CRFVERS":"V1.0_LIVE_30OCT2019_PW","HEIGHT":15.744,"ID":22,"ORDER":19,"PAGENUMBER":2,"SDTMDOM":["IVRS"],"SDTMTYPE":"SANOFI","SDTMVAR":["RDSIDE"],"WIDTH":128.16,"X":70.866,"Y":360.671},"location":{"x":70.866,"y":360.671,"width":128.16,"height":15.744},"position":{"x":201.026,"y":358.671,"width":53.618,"height":15.744},"domain":{"ivrs":{"id":"IVRS","label":"IVRS","variable":{"rdside":{"id":"RDSIDE","element":{"value":"RDSIDE","type":"variable","position":{"x":204.026,"y":358.671,"width":52.618,"height":15.744},"identifier":{"form":"ivrs_all","page":2,"field":"rdside","record":22,"domain":"ivrs","variable":"rdside"},"style":{"color":"#FF0000","background-color":"#FFFF96"}}}}}}}}},"rdttcat":{"id":"RDTTCAT","notsub":false,"noncol":false,"label":"Category for Treatment","record":{"23":{"id":23,"raw":{"CDASHDOM":["IVRS"],"CDASHTYPE":"SANOFI","CDASHVAR":"RDTTCAT","CLASS":"question","CRFCODELAB":null,"CRFDES":"Category for Treatment","CRFDOM":"IVRS","CRFDS":"IVRS_ALL","CRFDSLAB":"IVRS Library","CRFOD":2,"CRFVALUT":null,"CRFVAR":"RDTTCAT","CRFVAROD":20,"CRFVERS":"V1.0_LIVE_30OCT2019_PW","HEIGHT":15.744,"ID":23,"ORDER":20,"PAGENUMBER":2,"SDTMDOM":["IVRS"],"SDTMTYPE":"SANOFI","SDTMVAR":["RDTTCAT"],"WIDTH":113.172,"X":70.866,"Y":325.671},"location":{"x":70.866,"y":325.671,"width":113.172,"height":15.744},"position":{"x":186.038,"y":323.671,"width":65.023,"height":15.744},"domain":{"ivrs":{"id":"IVRS","label":"IVRS","variable":{"rdttcat":{"id":"RDTTCAT","element":{"value":"RDTTCAT","type":"variable","position":{"x":189.038,"y":323.671,"width":64.023,"height":15.744},"identifier":{"form":"ivrs_all","page":2,"field":"rdttcat","record":23,"domain":"ivrs","variable":"rdttcat"},"style":{"color":"#FF0000","background-color":"#FFFF96"}}}}}}}}},"rdaldat":{"id":"RDALDAT","notsub":false,"noncol":false,"label":"Date of Treatment Allocation","record":{"24":{"id":24,"raw":{"CDASHDOM":["IVRS"],"CDASHTYPE":"SANOFI","CDASHVAR":"RDALDAT","CLASS":"question","CRFCODELAB":null,"CRFDES":"Date of Treatment Allocation","CRFDOM":"IVRS","CRFDS":"IVRS_ALL","CRFDSLAB":"IVRS Library","CRFOD":2,"CRFVALUT":null,"CRFVAR":"RDALDAT","CRFVAROD":21,"CRFVERS":"V1.0_LIVE_30OCT2019_PW","HEIGHT":15.744,"ID":24,"ORDER":21,"PAGENUMBER":2,"SDTMDOM":["IVRS"],"SDTMTYPE":"SANOFI","SDTMVAR":["RDALDTC"],"WIDTH":141.444,"X":70.866,"Y":308.671},"location":{"x":70.866,"y":308.671,"width":141.444,"height":15.744},"position":{"x":214.31,"y":306.671,"width":65.801,"height":15.744},"domain":{"ivrs":{"id":"IVRS","label":"IVRS","variable":{"rdaldtc":{"id":"RDALDTC","element":{"value":"RDALDTC","type":"variable","position":{"x":217.31,"y":306.671,"width":64.801,"height":15.744},"identifier":{"form":"ivrs_all","page":2,"field":"rdaldat","record":24,"domain":"ivrs","variable":"rdaldtc"},"style":{"color":"#FF0000","background-color":"#FFFF96"}}}}}}}}},"rdaltim":{"id":"RDALTIM","notsub":false,"noncol":false,"label":"Time of Treatment Allocation","record":{"25":{"id":25,"raw":{"CDASHDOM":["IVRS"],"CDASHTYPE":"SANOFI","CDASHVAR":"RDALTIM","CLASS":"question","CRFCODELAB":null,"CRFDES":"Time of Treatment Allocation","CRFDOM":"IVRS","CRFDS":"IVRS_ALL","CRFDSLAB":"IVRS Library","CRFOD":2,"CRFVALUT":null,"CRFVAR":"RDALTIM","CRFVAROD":22,"CRFVERS":"V1.0_LIVE_30OCT2019_PW","HEIGHT":15.744,"ID":25,"ORDER":22,"PAGENUMBER":2,"SDTMDOM":["IVRS"],"SDTMTYPE":"SANOFI","SDTMVAR":["RDALDTC"],"WIDTH":144.108,"X":70.866,"Y":291.671},"location":{"x":70.866,"y":291.671,"width":144.108,"height":15.744},"position":{"x":216.974,"y":289.671,"width":65.801,"height":15.744},"domain":{"ivrs":{"id":"IVRS","label":"IVRS","variable":{"rdaldtc":{"id":"RDALDTC","element":{"value":"RDALDTC","type":"variable","position":{"x":219.974,"y":289.671,"width":64.801,"height":15.744},"identifier":{"form":"ivrs_all","page":2,"field":"rdaltim","record":25,"domain":"ivrs","variable":"rdaldtc"},"style":{"color":"#FF0000","background-color":"#FFFF96"}}}}}}}}},"rdalgdat":{"id":"RDALGDAT","notsub":false,"noncol":false,"label":"Date of Treatment Allocation (IVRS/IWRS)","record":{"26":{"id":26,"raw":{"CDASHDOM":["IVRS"],"CDASHTYPE":"SANOFI","CDASHVAR":"RDALGDAT","CLASS":"question","CRFCODELAB":null,"CRFDES":"Date of Treatment Allocation (IVRS/IWRS)","CRFDOM":"IVRS","CRFDS":"IVRS_ALL","CRFDSLAB":"IVRS Library","CRFOD":2,"CRFVALUT":null,"CRFVAR":"RDALGDAT","CRFVAROD":23,"CRFVERS":"V1.0_LIVE_30OCT2019_PW","HEIGHT":15.744,"ID":26,"ORDER":23,"PAGENUMBER":2,"SDTMDOM":["IVRS"],"SDTMTYPE":"SANOFI","SDTMVAR":["RDALGDTC"],"WIDTH":213.06,"X":70.866,"Y":274.671},"location":{"x":70.866,"y":274.671,"width":213.06,"height":15.744},"position":{"x":285.926,"y":272.671,"width":75.909,"height":15.744},"domain":{"ivrs":{"id":"IVRS","label":"IVRS","variable":{"rdalgdtc":{"id":"RDALGDTC","element":{"value":"RDALGDTC","type":"variable","position":{"x":288.926,"y":272.671,"width":74.909,"height":15.744},"identifier":{"form":"ivrs_all","page":2,"field":"rdalgdat","record":26,"domain":"ivrs","variable":"rdalgdtc"},"style":{"color":"#FF0000","background-color":"#FFFF96"}}}}}}}}},"rdalgtim":{"id":"RDALGTIM","notsub":false,"noncol":false,"label":"Time of Treatment Allocation (IVRS/IWRS)","record":{"27":{"id":27,"raw":{"CDASHDOM":["IVRS"],"CDASHTYPE":"SANOFI","CDASHVAR":"RDALGTIM","CLASS":"question","CRFCODELAB":null,"CRFDES":"Time of Treatment Allocation (IVRS/IWRS)","CRFDOM":"IVRS","CRFDS":"IVRS_ALL","CRFDSLAB":"IVRS Library","CRFOD":2,"CRFVALUT":null,"CRFVAR":"RDALGTIM","CRFVAROD":24,"CRFVERS":"V1.0_LIVE_30OCT2019_PW","HEIGHT":15.744,"ID":27,"ORDER":24,"PAGENUMBER":2,"SDTMDOM":["IVRS"],"SDTMTYPE":"SANOFI","SDTMVAR":["RDALGDTC"],"WIDTH":215.724,"X":70.866,"Y":257.671},"location":{"x":70.866,"y":257.671,"width":215.724,"height":15.744},"position":{"x":288.59,"y":255.671,"width":75.909,"height":15.744},"domain":{"ivrs":{"id":"IVRS","label":"IVRS","variable":{"rdalgdtc":{"id":"RDALGDTC","element":{"value":"RDALGDTC","type":"variable","position":{"x":291.59,"y":255.671,"width":74.909,"height":15.744},"identifier":{"form":"ivrs_all","page":2,"field":"rdalgtim","record":27,"domain":"ivrs","variable":"rdalgdtc"},"style":{"color":"#FF0000","background-color":"#FFFF96"}}}}}}}}},"rdbkunb":{"id":"RDBKUNB","notsub":false,"noncol":false,"label":"Is there a blind broken?","record":{"28":{"id":28,"raw":{"CDASHDOM":["IVRS"],"CDASHTYPE":"SANOFI","CDASHVAR":"RDBKUNB","CLASS":"question","CRFCODELAB":null,"CRFDES":"Is there a blind broken?","CRFDOM":"IVRS","CRFDS":"IVRS_ALL","CRFDSLAB":"IVRS Library","CRFOD":2,"CRFVALUT":null,"CRFVAR":"RDBKUNB","CRFVAROD":25,"CRFVERS":"V1.0_LIVE_30OCT2019_PW","HEIGHT":15.744,"ID":28,"ORDER":25,"PAGENUMBER":2,"SDTMDOM":["IVRS"],"SDTMTYPE":"SANOFI","SDTMVAR":["RDBKUNB"],"WIDTH":113.208,"X":70.866,"Y":240.671},"location":{"x":70.866,"y":240.671,"width":113.208,"height":15.744},"position":{"x":186.074,"y":238.671,"width":68.004,"height":15.744},"domain":{"ivrs":{"id":"IVRS","label":"IVRS","variable":{"rdbkunb":{"id":"RDBKUNB","element":{"value":"RDBKUNB","type":"variable","position":{"x":189.074,"y":238.671,"width":67.004,"height":15.744},"identifier":{"form":"ivrs_all","page":2,"field":"rdbkunb","record":28,"domain":"ivrs","variable":"rdbkunb"},"style":{"color":"#FF0000","background-color":"#FFFF96"}}}}}}}}},"rdbkdat":{"id":"RDBKDAT","notsub":false,"noncol":false,"label":"Local Date of blind broken","record":{"29":{"id":29,"raw":{"CDASHDOM":["IVRS"],"CDASHTYPE":"SANOFI","CDASHVAR":"RDBKDAT","CLASS":"question","CRFCODELAB":null,"CRFDES":"Local Date of blind broken","CRFDOM":"IVRS","CRFDS":"IVRS_ALL","CRFDSLAB":"IVRS Library","CRFOD":2,"CRFVALUT":null,"CRFVAR":"RDBKDAT","CRFVAROD":26,"CRFVERS":"V1.0_LIVE_30OCT2019_PW","HEIGHT":15.744,"ID":29,"ORDER":26,"PAGENUMBER":2,"SDTMDOM":["IVRS"],"SDTMTYPE":"SANOFI","SDTMVAR":["RDBKDDTC"],"WIDTH":129.852,"X":70.866,"Y":223.671},"location":{"x":70.866,"y":223.671,"width":129.852,"height":15.744},"position":{"x":202.71800000000002,"y":221.671,"width":76.557,"height":15.744},"domain":{"ivrs":{"id":"IVRS","label":"IVRS","variable":{"rdbkddtc":{"id":"RDBKDDTC","element":{"value":"RDBKDDTC","type":"variable","position":{"x":205.71800000000002,"y":221.671,"width":75.557,"height":15.744},"identifier":{"form":"ivrs_all","page":2,"field":"rdbkdat","record":29,"domain":"ivrs","variable":"rdbkddtc"},"style":{"color":"#FF0000","background-color":"#FFFF96"}}}}}}}}},"rdbkwho":{"id":"RDBKWHO","notsub":false,"noncol":false,"label":"Function of the blind breaker","record":{"30":{"id":30,"raw":{"CDASHDOM":["IVRS"],"CDASHTYPE":"SANOFI","CDASHVAR":"RDBKWHO","CLASS":"question","CRFCODE":["ESMS","INVESTIGATOR","PHARMACIST","STUDY NURSE"],"CRFCODELAB":["ESMS","Investigator","Pharmacist","Study Nurse"],"CRFDES":"Function of the blind breaker","CRFDIC":"DSCBWHOR","CRFDOM":"IVRS","CRFDS":"IVRS_ALL","CRFDSLAB":"IVRS Library","CRFOD":2,"CRFVALUT":null,"CRFVAR":"RDBKWHO","CRFVAROD":27,"CRFVERS":"V1.0_LIVE_30OCT2019_PW","HEIGHT":15.744,"ID":30,"ORDER":27,"PAGENUMBER":2,"SDTMDOM":["IVRS"],"SDTMTYPE":"SANOFI","SDTMVAR":["RDBKWHO"],"WIDTH":139.86,"X":70.866,"Y":206.671},"location":{"x":70.866,"y":206.671,"width":139.86,"height":15.744},"position":{"x":212.726,"y":204.671,"width":72.28,"height":15.744},"domain":{"ivrs":{"id":"IVRS","label":"IVRS","variable":{"rdbkwho":{"id":"RDBKWHO","element":{"value":"RDBKWHO","type":"variable","position":{"x":215.726,"y":204.671,"width":71.28,"height":15.744},"identifier":{"form":"ivrs_all","page":2,"field":"rdbkwho","record":30,"domain":"ivrs","variable":"rdbkwho"},"style":{"color":"#FF0000","background-color":"#FFFF96"}}}}}}}}},"exprtdt":{"id":"EXPRTDT","notsub":false,"noncol":false,"label":"IVRS original export date and time","record":{"31":{"id":31,"raw":{"CDASHDOM":["IVRS"],"CDASHTYPE":"SANOFI","CDASHVAR":"EXPRTDT","CLASS":"question","CRFCODELAB":null,"CRFDES":"IVRS original export date and time","CRFDOM":"IVRS","CRFDS":"IVRS_ALL","CRFDSLAB":"IVRS Library","CRFOD":2,"CRFVALUT":null,"CRFVAR":"EXPRTDT","CRFVAROD":28,"CRFVERS":"V1.0_LIVE_30OCT2019_PW","HEIGHT":15.744,"ID":31,"ORDER":28,"PAGENUMBER":2,"WIDTH":168.804,"X":70.866,"Y":139.671},"location":{"x":70.866,"y":139.671,"width":168.804,"height":15.744},"position":{"x":241.67000000000002,"y":137.671,"width":1,"height":15.744}}}},"rdspid":{"id":"RDSPID","notsub":false,"noncol":false,"label":"IVRS Transaction ID","record":{"32":{"id":32,"raw":{"CDASHDOM":["IVRS"],"CDASHTYPE":"SANOFI","CDASHVAR":"RDSPID","CLASS":"question","CRFCODELAB":null,"CRFDES":"IVRS Transaction ID","CRFDOM":"IVRS","CRFDS":"IVRS_ALL","CRFDSLAB":"IVRS Library","CRFOD":2,"CRFVALUT":null,"CRFVAR":"RDSPID","CRFVAROD":29,"CRFVERS":"V1.0_LIVE_30OCT2019_PW","HEIGHT":15.744,"ID":32,"ORDER":29,"PAGENUMBER":2,"WIDTH":102.564,"X":70.866,"Y":122.671},"location":{"x":70.866,"y":122.671,"width":102.564,"height":15.744},"position":{"x":175.43,"y":120.671,"width":1,"height":15.744}}}}}}}},"sv_01":{"id":"SV_01","start":3,"end":null,"notsub":false,"header":{},"page":{"3":{"id":3,"notsub":false,"noncol":false,"position":{"x":72,"y":769,"width":125.49700000000001,"height":18},"header":{"sv":{"id":"SV","style":{"color":"#FF0000","background-color":"#BFFFFF"},"element":{"value":"SV(Subject Visits)","type":"domain","position":{"x":72,"y":769,"width":125.497,"height":18},"identifier":{"form":"sv_01","page":3,"field":"visdat","record":35,"domain":"sv"},"style":{"color":"#FF0000","background-color":"#BFFFFF"}}}},"field":{"visyn":{"id":"VISYN","notsub":false,"noncol":false,"label":"Was the visit performed?","record":{"33":{"id":33,"raw":{"CDASHDOM":["SV"],"CDASHTYPE":"SANOFI","CDASHVAR":"VISYN","CLASS":"question","CRFCODE":["Y","N"],"CRFCODELAB":["Yes","No"],"CRFDES":"Was the visit performed?","CRFDIC":"NY_YN","CRFDOM":"SV","CRFDS":"SV_01","CRFDSLAB":"Visit Date","CRFOD":4,"CRFVALUT":null,"CRFVAR":"VISYN","CRFVAROD":1,"CRFVERS":"V1.0_LIVE_30OCT2019_PW","CRFVISDU":[-1,-1,-1,-1,-1],"CRFVISDY":[-1,-1,-1,-1,-1],"CRFVISID":["10_V01","20_V02","30_V03","40_V04","50_V05"],"CRFVISIT":["Visit 01","Visit 02","Visit 03","Visit 04","Visit 05"],"CRFVISOD":[1,3,4,5,6],"HEIGHT":15.744,"ID":33,"ORDER":1,"PAGENUMBER":3,"WIDTH":120.84,"X":70.866,"Y":666.671},"location":{"x":70.866,"y":666.671,"width":120.84,"height":15.744},"position":{"x":193.70600000000002,"y":664.671,"width":1,"height":15.744}}}},"prompt_visdat":{"id":"PROMPT_VISDAT","notsub":false,"noncol":false,"label":"If yes, provide the date:","record":{"34":{"id":34,"raw":{"CDASHDOM":["SV"],"CDASHTYPE":"SANOFI","CDASHVAR":"PROMPT_VISDAT","CLASS":"question","CRFCODELAB":null,"CRFDES":"If yes, provide the date:","CRFDOM":"SV","CRFDS":"SV_01","CRFDSLAB":"Visit Date","CRFOD":4,"CRFVALUT":null,"CRFVAR":"PROMPT_VISDAT","CRFVAROD":2,"CRFVERS":"V1.0_LIVE_30OCT2019_PW","CRFVISDU":[-1,-1,-1,-1,-1],"CRFVISDY":[-1,-1,-1,-1,-1],"CRFVISID":["10_V01","20_V02","30_V03","40_V04","50_V05"],"CRFVISIT":["Visit 01","Visit 02","Visit 03","Visit 04","Visit 05"],"CRFVISOD":[1,3,4,5,6],"HEIGHT":15.948,"ID":34,"ORDER":2,"PAGENUMBER":3,"WIDTH":113.52,"X":70.866,"Y":631.659},"location":{"x":70.866,"y":631.659,"width":113.52,"height":15.948},"position":{"x":186.386,"y":629.659,"width":1,"height":15.948}}}},"visdat":{"id":"VISDAT","notsub":false,"noncol":false,"label":"Date of Visit","record":{"35":{"id":35,"raw":{"CDASHDOM":["DA","DD","EG","IE","LB","MI","PC","PE","SC","RP","SR","VS"],"CDASHTYPE":"IG","CDASHVAR":"VISDAT","CLASS":"question","CRFCODELAB":null,"CRFDES":"Date of Visit","CRFDOM":"SV","CRFDS":"SV_01","CRFDSLAB":"Visit Date","CRFOD":4,"CRFVALUT":null,"CRFVAR":"VISDAT","CRFVAROD":3,"CRFVERS":"V1.0_LIVE_30OCT2019_PW","CRFVISDU":[-1,-1,-1,-1,-1],"CRFVISDY":[-1,-1,-1,-1,-1],"CRFVISID":["10_V01","20_V02","30_V03","40_V04","50_V05"],"CRFVISIT":["Visit 01","Visit 02","Visit 03","Visit 04","Visit 05"],"CRFVISOD":[1,3,4,5,6],"HEIGHT":15.744,"ID":35,"ORDER":3,"PAGENUMBER":3,"SDTMDOM":["SV"],"SDTMTYPE":"SANOFI","SDTMVAR":["SVENDTC","SVSTDTC"],"WIDTH":61.92,"X":80.866,"Y":614.671},"location":{"x":80.866,"y":614.671,"width":61.92,"height":15.744},"position":{"x":144.786,"y":612.671,"width":130.73000000000002,"height":15.744},"domain":{"sv":{"id":"SV","label":"Subject Visits","variable":{"svendtc":{"id":"SVENDTC","label":"End Date/Time of Visit","element":{"value":"SVENDTC","type":"variable","position":{"x":147.786,"y":612.671,"width":65.578,"height":15.744},"identifier":{"form":"sv_01","page":3,"field":"visdat","record":35,"domain":"sv","variable":"svendtc"},"style":{"color":"#FF0000","background-color":"#BFFFFF"}}},"svstdtc":{"id":"SVSTDTC","label":"Start Date/Time of Visit","element":{"value":"SVSTDTC","type":"variable","position":{"x":213.364,"y":612.671,"width":64.152,"height":15.744},"identifier":{"form":"sv_01","page":3,"field":"visdat","record":35,"domain":"sv","variable":"svstdtc"},"style":{"color":"#FF0000","background-color":"#BFFFFF"}}}}}}}}}}}}},"ie_nc":{"id":"IE_NC","start":4,"end":null,"notsub":false,"header":{},"page":{"4":{"id":4,"notsub":false,"noncol":false,"position":{"x":72,"y":769,"width":267.776,"height":18},"header":{"ie":{"id":"IE","style":{"color":"#FF0000","background-color":"#BFFFFF","bolder-style":"dash"},"element":{"value":"IE(Inclusion/Exclusion Criteria Not Met)","type":"domain","position":{"x":72,"y":769,"width":267.776,"height":18},"identifier":{"form":"ie_nc","page":4,"field":"ievers","record":36,"domain":"ie"},"style":{"color":"#FF0000","background-color":"#BFFFFF","bolder-style":"dash"}}}},"field":{"ievers":{"id":"IEVERS","notsub":false,"noncol":false,"label":"Protocol Version","record":{"36":{"id":36,"raw":{"CDASHDOM":["IE"],"CDASHTYPE":"SANOFI","CDASHVAR":"IEVERS","CLASS":"question","CRFCODE":["ORIGINAL PROTOCOL","AMENDMENT 1","AMENDMENT 2","AMENDMENT 3","AMENDMENT 4","AMENDMENT 5","AMENDMENT 6","AMENDMENT 7","AMENDMENT 8","AMENDMENT 9","AMENDMENT 10","VERSION 1","VERSION 2","VERSION 3"],"CRFCODELAB":["Original Protocol","Amendment 1","Amendment 2","Amendment 3","Amendment 4","Amendment 5","Amendment 6","Amendment 7","Amendment 8","Amendment 9","Amendment 10","Version 1","Version 2","Version 3"],"CRFDES":"Protocol Version","CRFDIC":"PROTVER","CRFDOM":"IE","CRFDS":"IE_NC","CRFDSLAB":"Inclusion/Exclusion","CRFOD":5,"CRFVAL":"ORIGINAL PROTOCOL","CRFVALUT":null,"CRFVAR":"IEVERS","CRFVAROD":1,"CRFVERS":"V1.0_LIVE_30OCT2019_PW","CRFVISDU":[-1],"CRFVISDY":[-1],"CRFVISID":["10_V01"],"CRFVISIT":["Visit 01"],"CRFVISOD":[1],"HEIGHT":15.744,"ID":36,"NONCOL":true,"ORDER":1,"PAGENUMBER":4,"SDTMDOM":["IE"],"SDTMTYPE":"SANOFI","SDTMVAR":["IEVERS"],"WIDTH":81.6,"X":70.866,"Y":666.671},"location":{"x":70.866,"y":666.671,"width":81.6,"height":15.744},"position":{"x":154.466,"y":664.671,"width":52.322,"height":15.744},"domain":{"ie":{"id":"IE","label":"Inclusion/Exclusion Criteria Not Met","variable":{"ievers":{"id":"IEVERS","label":"Protocol Criteria Version","dataset":"SUPPIE","element":{"value":"IEVERS","type":"variable","position":{"x":157.466,"y":664.671,"width":51.322,"height":15.744},"identifier":{"form":"ie_nc","page":4,"field":"ievers","record":36,"domain":"ie","variable":"ievers"},"style":{"color":"#FF0000","background-color":"#BFFFFF","bolder-style":"dash"}}}}}}}}},"ieyn":{"id":"IEYN","notsub":false,"noncol":false,"label":"Did the subject meet all eligibility criteria?","record":{"37":{"id":37,"raw":{"CDASHDOM":["IE"],"CDASHTYPE":"IG","CDASHVAR":"IEYN","CLASS":"question","CRFCODE":["Y","N"],"CRFCODELAB":["Yes","No"],"CRFDES":"Did the subject meet all eligibility criteria?","CRFDIC":"NY_YN","CRFDOM":"IE","CRFDS":"IE_NC","CRFDSLAB":"Inclusion/Exclusion","CRFOD":5,"CRFVALUT":null,"CRFVAR":"IEYN","CRFVAROD":2,"CRFVERS":"V1.0_LIVE_30OCT2019_PW","CRFVISDU":[-1],"CRFVISDY":[-1],"CRFVISID":["10_V01"],"CRFVISIT":["Visit 01"],"CRFVISOD":[1],"HEIGHT":15.744,"ID":37,"ORDER":2,"PAGENUMBER":4,"WIDTH":205.632,"X":70.866,"Y":439.671},"location":{"x":70.866,"y":439.671,"width":205.632,"height":15.744},"position":{"x":278.498,"y":437.671,"width":1,"height":15.744}}}},"prompt_iecat_ietest":{"id":"PROMPT_IECAT_IETEST","notsub":false,"noncol":false,"label":"If no, specify Criterion Category(ies) and Number(s).","record":{"38":{"id":38,"raw":{"CDASHDOM":["IE"],"CDASHTYPE":"SANOFI","CDASHVAR":"PROMPT_IECAT_IETEST","CLASS":"question","CRFCODELAB":null,"CRFDES":"If no, specify Criterion Category(ies) and Number(s).","CRFDOM":"IE","CRFDS":"IE_NC","CRFDSLAB":"Inclusion/Exclusion","CRFOD":5,"CRFVALUT":null,"CRFVAR":"PROMPT_IECAT_IETEST","CRFVAROD":3,"CRFVERS":"V1.0_LIVE_30OCT2019_PW","CRFVISDU":[-1],"CRFVISDY":[-1],"CRFVISID":["10_V01"],"CRFVISIT":["Visit 01"],"CRFVISOD":[1],"HEIGHT":15.948,"ID":38,"ORDER":3,"PAGENUMBER":4,"WIDTH":256.416,"X":70.866,"Y":404.659},"location":{"x":70.866,"y":404.659,"width":256.416,"height":15.948},"position":{"x":329.282,"y":402.659,"width":1,"height":15.948}}}},"iecat":{"id":"IECAT","notsub":false,"noncol":false,"label":"Criterion Category","record":{"39":{"id":39,"raw":{"CDASHDOM":["IE"],"CDASHTYPE":"IG","CDASHVAR":"IECAT","CLASS":"question","CRFCODE":["EXCLUSION","INCLUSION"],"CRFCODELAB":["Exclusion Criteria","Inclusion Criteria"],"CRFDES":"Criterion Category","CRFDIC":"IECAT","CRFDOM":"IE","CRFDS":"IE_NC","CRFDSLAB":"Inclusion/Exclusion","CRFOD":5,"CRFVALUT":null,"CRFVAR":"IECAT","CRFVAROD":4,"CRFVERS":"V1.0_LIVE_30OCT2019_PW","CRFVISDU":[-1],"CRFVISDY":[-1],"CRFVISID":["10_V01"],"CRFVISIT":["Visit 01"],"CRFVISOD":[1],"HEIGHT":15.744,"ID":39,"ORDER":4,"PAGENUMBER":4,"SDTMDOM":["IE"],"SDTMTYPE":"IG","SDTMVAR":["IECAT","IEORRES","IESTRESC"],"WIDTH":90.216,"X":70.866,"Y":387.671},"location":{"x":70.866,"y":387.671,"width":90.216,"height":15.744},"position":{"x":163.082,"y":385.671,"width":173.499,"height":15.744},"domain":{"ie":{"id":"IE","label":"Inclusion/Exclusion Criteria Not Met","variable":{"iecat":{"id":"IECAT","label":"Inclusion/Exclusion Category","element":{"value":"IECAT","type":"variable","position":{"x":166.082,"y":385.671,"width":41.861,"height":15.744},"identifier":{"form":"ie_nc","page":4,"field":"iecat","record":39,"domain":"ie","variable":"iecat"},"style":{"color":"#FF0000","background-color":"#BFFFFF","bolder-style":"dash"}}},"ieorres":{"id":"IEORRES","label":"I/E Criterion Original Result","element":{"value":"IEORRES","type":"variable","position":{"x":207.94299999999998,"y":385.671,"width":62.079,"height":15.744},"identifier":{"form":"ie_nc","page":4,"field":"iecat","record":39,"domain":"ie","variable":"ieorres"},"style":{"color":"#FF0000","background-color":"#BFFFFF","bolder-style":"dash"}}},"iestresc":{"id":"IESTRESC","label":"I/E Criterion Result in Std Format","element":{"value":"IESTRESC","type":"variable","position":{"x":270.022,"y":385.671,"width":68.559,"height":15.744},"identifier":{"form":"ie_nc","page":4,"field":"iecat","record":39,"domain":"ie","variable":"iestresc"},"style":{"color":"#FF0000","background-color":"#BFFFFF","bolder-style":"dash"}}}}}}}}},"ietestds":{"id":"IETESTDS","notsub":false,"noncol":false,"label":"Criterion Number and Description","record":{"40":{"id":40,"raw":{"CDASHDOM":["IE"],"CDASHTYPE":"SANOFI","CDASHVAR":"IETESTDS","CLASS":"question","CRFCODELAB":null,"CRFDES":"Criterion Number and Description","CRFDOM":"IE","CRFDS":"IE_NC","CRFDSLAB":"Inclusion/Exclusion","CRFOD":5,"CRFVALUT":null,"CRFVAR":"IETESTDS","CRFVAROD":5,"CRFVERS":"V1.0_LIVE_30OCT2019_PW","CRFVISDU":[-1],"CRFVISDY":[-1],"CRFVISID":["10_V01"],"CRFVISIT":["Visit 01"],"CRFVISOD":[1],"HEIGHT":15.744,"ID":40,"ORDER":5,"PAGENUMBER":4,"WIDTH":164.82,"X":70.866,"Y":352.671},"location":{"x":70.866,"y":352.671,"width":164.82,"height":15.744},"position":{"x":237.68599999999998,"y":350.671,"width":1,"height":15.744}}}},"ietestcd":{"id":"IETESTCD","notsub":false,"noncol":false,"label":"Criterion Number","record":{"41":{"id":41,"raw":{"CDASHDOM":["IE"],"CDASHTYPE":"IG","CDASHVAR":"IETESTCD","CLASS":"question","CRFCODELAB":null,"CRFDES":"Criterion Number","CRFDOM":"IE","CRFDS":"IE_NC","CRFDSLAB":"Inclusion/Exclusion","CRFOD":5,"CRFVALUT":null,"CRFVAR":"IETESTCD","CRFVAROD":6,"CRFVERS":"V1.0_LIVE_30OCT2019_PW","CRFVISDU":[-1],"CRFVISDY":[-1],"CRFVISID":["10_V01"],"CRFVISIT":["Visit 01"],"CRFVISOD":[1],"HEIGHT":15.744,"ID":41,"ORDER":6,"PAGENUMBER":4,"SDTMDOM":["IE"],"SDTMTYPE":"IG","SDTMVAR":["IETESTCD"],"WIDTH":85.572,"X":70.866,"Y":335.671},"location":{"x":70.866,"y":335.671,"width":85.572,"height":15.744},"position":{"x":158.438,"y":333.671,"width":68.781,"height":15.744},"domain":{"ie":{"id":"IE","label":"Inclusion/Exclusion Criteria Not Met","variable":{"ietestcd":{"id":"IETESTCD","label":"Inclusion/Exclusion Criterion Short Name","element":{"value":"IETESTCD","type":"variable","position":{"x":161.438,"y":333.671,"width":67.781,"height":15.744},"identifier":{"form":"ie_nc","page":4,"field":"ietestcd","record":41,"domain":"ie","variable":"ietestcd"},"style":{"color":"#FF0000","background-color":"#BFFFFF","bolder-style":"dash"}}}}}}}}},"ietechfld":{"id":"IETECHFLD","notsub":false,"noncol":false,"label":"Technical field for Dynamic searchlist needs","record":{"42":{"id":42,"raw":{"CDASHDOM":["IE"],"CDASHTYPE":"SANOFI","CDASHVAR":"IETECHFLD","CLASS":"question","CRFCODE":["TECHDUMVAL","ORIGINAL PROTOCOL#_#I01","ORIGINAL PROTOCOL#_#I02","ORIGINAL PROTOCOL#_#I03","ORIGINAL PROTOCOL#_#E01","ORIGINAL PROTOCOL#_#E02","ORIGINAL PROTOCOL#_#E03","ORIGINAL PROTOCOL#_#E04","ORIGINAL PROTOCOL#_#E05","ORIGINAL PROTOCOL#_#E06","ORIGINAL PROTOCOL#_#E07","ORIGINAL PROTOCOL#_#E08","ORIGINAL PROTOCOL#_#E09","ORIGINAL PROTOCOL#_#E10","ORIGINAL PROTOCOL#_#E11","ORIGINAL PROTOCOL#_#E12","ORIGINAL PROTOCOL#_#E13","ORIGINAL PROTOCOL#_#E14","ORIGINAL PROTOCOL#_#E15","ORIGINAL PROTOCOL#_#E16","ORIGINAL PROTOCOL#_#E17","ORIGINAL PROTOCOL#_#E18","ORIGINAL PROTOCOL#_#E19","ORIGINAL PROTOCOL#_#E20","ORIGINAL PROTOCOL#_#E21","ORIGINAL PROTOCOL#_#E22","ORIGINAL PROTOCOL#_#E23"],"CRFCODELAB":["Techdumval","Aged 18 to 30 years on the day of inclusion","Informed consent form has been signed and dated","Able to attend all scheduled visits and to comply with all study procedures","Subject is pregnant, or lactating, or of childbearing potential and not using an effective method of contraception or abstinence from at least 4 weeks prior to vaccination until at least 12 weeks after...","Participation at the time of study enrollment (or in the 4 weeks preceding the study vaccination) or planned participation during the present study period in another clinical study investigating…","Receipt of any vaccine in the 4 weeks preceding the study vaccination or planned receipt of any vaccine in the 4 weeks following study vaccination","Previous vaccination against influenza in the previous influenza season (2018-2019) with any licensed or investigational influenza vaccine","Previous vaccination against influenza in the 2019-2020 season with any licensed influenza vaccine","Receipt of immune globulins, blood or blood-derived products in the past 3 months","Known or suspected congenital or acquired immunodeficiency; or receipt of immunosuppressive therapy, such as anti-cancer chemotherapy or radiation therapy, within the preceding 6 months; or...","Have known active or recently active (12 months) neoplastic disease or a history of any hematologic malignancy","History of influenza infection during the 2018-2019 or 2019-2020 influenza season, confirmed by laboratory tests (including rapid tests)","Self-reported or documented seropositivity for human immunodeficiency virus, hepatitis B, or hepatitis C","Known systemic hypersensitivity to any of the vaccine components, or history of a lifethreatening reaction to the vaccines used in the study or to a vaccine containing any of the same substances","Thrombocytopenia or bleeding disorder, contraindicating IM vaccination based on Investigator’s judgement","Deprived of freedom by an administrative or court order, or in an emergency setting, or hospitalized involuntarily","Alcohol abuse or substance abuse that, in the opinion of the investigator, might interfere with the study conduct or completion","Chronic illness that, in the opinion of the investigator, is at a stage where it might interfere with study conduct or completion or predispose to complications associated with influenza infection","Have any diagnosis, current or past, of chronic pulmonary diseases including asthma, cystic fibrosis and chronic pulmonary obstructive disease","Have taken high-dose inhaled corticosteroids within 6 months prior to study vaccination","Body Mass Index of 40 or higher","History of cardiac disease such as congenital heart disease, heart failure, coronary artery disease (except isolated hypertension)","Health care personnel in inpatient and outpatient care settings, medical emergency-response workers, employees of nursing home and long-term care facilities who have contact with patients...","Moderate or severe acute illness/infection (according to investigator judgment) on the day of vaccination or febrile illness (temperature >= 100.4°F [>= 38.0°C]). A prospective subject should not be...","Identified as an Investigator or employee of the Investigator or study center with direct involvement in the proposed study, or identified as an immediate family member (i.e., parent, spouse, natural...","Personal or family history of GBS"],"CRFDES":"Technical field for Dynamic searchlist needs","CRFDIC":"IE_TI","CRFDOM":"IE","CRFDS":"IE_NC","CRFDSLAB":"Inclusion/Exclusion","CRFOD":5,"CRFVAL":"TECHDUMVAL","CRFVALUT":null,"CRFVAR":"IETECHFLD","CRFVAROD":7,"CRFVERS":"V1.0_LIVE_30OCT2019_PW","CRFVISDU":[-1],"CRFVISDY":[-1],"CRFVISID":["10_V01"],"CRFVISIT":["Visit 01"],"CRFVISOD":[1],"HEIGHT":15.744,"ID":42,"NONCOL":true,"ORDER":7,"PAGENUMBER":4,"WIDTH":214.68,"X":70.866,"Y":318.671},"location":{"x":70.866,"y":318.671,"width":214.68,"height":15.744},"position":{"x":287.546,"y":316.671,"width":1,"height":15.744}}}}}}}},"ds_ic_dat":{"id":"DS_IC_DAT","start":8,"end":null,"notsub":false,"header":{},"page":{"8":{"id":8,"notsub":false,"noncol":false,"position":{"x":72,"y":769,"width":329.61699999999996,"height":18},"header":{"ds":{"id":"DS","style":{"color":"#FF0000","background-color":"#BFFFFF","bolder-style":"dash"},"element":{"value":"DS(Disposition)","type":"domain","position":{"x":72,"y":769,"width":109.318,"height":18},"identifier":{"form":"ds_ic_dat","page":8,"field":"dsdecod","record":44,"domain":"ds"},"style":{"color":"#FF0000","background-color":"#BFFFFF","bolder-style":"dash"}}},"dm":{"id":"DM","style":{"color":"#FF0000","background-color":"#FFFF96"},"element":{"value":"DM(Demographics)","type":"domain","position":{"x":181.31799999999998,"y":769,"width":135.324,"height":18},"identifier":{"form":"ds_ic_dat","page":8,"field":"dsstdat","record":46,"domain":"dm"},"style":{"color":"#FF0000","background-color":"#FFFF96"}}},"ivrs":{"id":"IVRS","style":{"color":"#FF0000","background-color":"#96FF96"},"element":{"value":"IVRS(IVRS)","type":"domain","position":{"x":316.642,"y":769,"width":84.975,"height":18},"identifier":{"form":"ds_ic_dat","page":8,"field":"dsstdat","record":46,"domain":"ivrs"},"style":{"color":"#FF0000","background-color":"#96FF96"}}}},"field":{"prompt_dsdecod":{"id":"PROMPT_DSDECOD","notsub":false,"noncol":false,"label":"Informed Consent","record":{"43":{"id":43,"raw":{"CDASHDOM":["DS"],"CDASHTYPE":"SANOFI","CDASHVAR":"PROMPT_DSDECOD","CLASS":"question","CRFCODELAB":null,"CRFDES":"Informed Consent","CRFDOM":"DS","CRFDS":"DS_IC_DAT","CRFDSLAB":"Informed Consent Date","CRFOD":6,"CRFVALUT":null,"CRFVAR":"PROMPT_DSDECOD","CRFVAROD":1,"CRFVERS":"V1.0_LIVE_30OCT2019_PW","CRFVISDU":[-1],"CRFVISDY":[-1],"CRFVISID":["10_V01"],"CRFVISIT":["Visit 01"],"CRFVISOD":[1],"HEIGHT":15.948,"ID":43,"ORDER":1,"PAGENUMBER":8,"WIDTH":86.268,"X":70.866,"Y":666.659},"location":{"x":70.866,"y":666.659,"width":86.268,"height":15.948},"position":{"x":159.13400000000001,"y":664.659,"width":1,"height":15.948}}}},"dsdecod":{"id":"DSDECOD","notsub":false,"noncol":false,"label":"INFORMED CONSENT OBTAINED","record":{"44":{"id":44,"raw":{"CDASHDOM":["DS"],"CDASHTYPE":"IG","CDASHVAR":"DSDECOD","CLASS":"question","CRFCODE":["INFORMED ASSENT OBTAINED FROM JUVENILE","INFORMED CONSENT OBTAINED","INFORMED CONSENT OBTAINED FOR ARCHIVED BIOPSY","INFORMED CONSENT OBTAINED FOR ARCHIVED BLOOD SAMPLES","INFORMED CONSENT OBTAINED FOR CHILD REACHING AGE OF MAJORITY","INFORMED CONSENT OBTAINED FOR DRUG METABOLISM ENZYME","INFORMED CONSENT OBTAINED FOR FRESH BIOPSY","INFORMED CONSENT OBTAINED FOR HIV TESTING","INFORMED CONSENT OBTAINED FOR PHARMACOGENETIC ANALYSIS","INFORMED CONSENT OBTAINED FOR PHARMACOGENETIC BANKING","INFORMED CONSENT OBTAINED FOR PHARMACOGENOMIC","INFORMED CONSENT OBTAINED FOR PHARMACOKINETICS","INFORMED CONSENT OBTAINED FOR STUDY","INFORMED CONSENT OBTAINED FOR USE OF DATA AND SAMPLES FOR FUTURE RESEARCH","INFORMED CONSENT OBTAINED TO PERFORM AUTOPSY","INFORMED CONSENT OBTAINED TO PERFORM HEFH GENOTYPING","INFORMED CONSENT OBTAINED TO USE PREVIOUS HEFH GENOTYPING"],"CRFCODELAB":["Informed Assent Obtained from Juvenile","Informed Consent Obtained","Archived Biopsy Informed Consent Obtained","Archived Blood Samples Informed Consent Obtained","Child Who Reached Age of Majority Informed Consent Obtained","Drug Metabolism Enzyme Informed Consent Obtained","Fresh Biopsy Informed Consent Obtained","HIV Test Informed Consent Obtained","Pharmacogenetic Analysis Informed Consent Obtained","Pharmacogenetic Banking Informed Consent Obtained","Pharmacogenomic Informed Consent Obtained","Pharmacokinetics Informed Consent Obtained","Study Informed Consent Obtained","Informed Consent Obtained for Use of Data and Samples for Future Research","Informed Consent Obtained to Perform Autopsy","Informed Consent Obtained to Perform HeFH Genotyping","Informed Consent Obtained to Use Previous HeFH Genotyping"],"CRFDES":"INFORMED CONSENT OBTAINED","CRFDIC":"INFCST","CRFDOM":"DS","CRFDS":"DS_IC_DAT","CRFDSLAB":"Informed Consent Date","CRFOD":6,"CRFVAL":"INFORMED CONSENT OBTAINED FOR STUDY","CRFVALUT":null,"CRFVAR":"DSDECOD","CRFVAROD":2,"CRFVERS":"V1.0_LIVE_30OCT2019_PW","CRFVISDU":[-1],"CRFVISDY":[-1],"CRFVISID":["10_V01"],"CRFVISIT":["Visit 01"],"CRFVISOD":[1],"HEIGHT":15.744,"ID":44,"NONCOL":true,"ORDER":2,"PAGENUMBER":8,"SDTMDOM":["DS"],"SDTMTYPE":"IG","SDTMVAR":["DSDECOD"],"WIDTH":185.22,"X":70.866,"Y":649.671},"location":{"x":70.866,"y":649.671,"width":185.22,"height":15.744},"position":{"x":258.086,"y":647.671,"width":69.429,"height":15.744},"domain":{"ds":{"id":"DS","label":"Disposition","variable":{"dsdecod":{"id":"DSDECOD","label":"Standardized Disposition Term","element":{"value":"DSDECOD","type":"variable","position":{"x":261.086,"y":647.671,"width":68.429,"height":15.744},"identifier":{"form":"ds_ic_dat","page":8,"field":"dsdecod","record":44,"domain":"ds","variable":"dsdecod"},"style":{"color":"#FF0000","background-color":"#BFFFFF","bolder-style":"dash"}}}}}}}}},"dsterm":{"id":"DSTERM","notsub":false,"noncol":false,"label":"INFORMED CONSENT OBTAINED","record":{"45":{"id":45,"raw":{"CDASHDOM":["DS"],"CDASHTYPE":"IG","CDASHVAR":"DSTERM","CLASS":"question","CRFCODELAB":null,"CRFDES":"INFORMED CONSENT OBTAINED","CRFDOM":"DS","CRFDS":"DS_IC_DAT","CRFDSLAB":"Informed Consent Date","CRFOD":6,"CRFVAL":"INFORMED CONSENT OBTAINED FOR STUDY","CRFVALUT":null,"CRFVAR":"DSTERM","CRFVAROD":3,"CRFVERS":"V1.0_LIVE_30OCT2019_PW","CRFVISDU":[-1],"CRFVISDY":[-1],"CRFVISID":["10_V01"],"CRFVISIT":["Visit 01"],"CRFVISOD":[1],"HEIGHT":15.744,"ID":45,"NONCOL":true,"ORDER":3,"PAGENUMBER":8,"SDTMDOM":["DS"],"SDTMTYPE":"IG","SDTMVAR":["DSTERM"],"WIDTH":185.22,"X":70.866,"Y":140.671},"location":{"x":70.866,"y":140.671,"width":185.22,"height":15.744},"position":{"x":258.086,"y":138.671,"width":59.321,"height":15.744},"domain":{"ds":{"id":"DS","label":"Disposition","variable":{"dsterm":{"id":"DSTERM","label":"Reported Term for the Disposition Event","element":{"value":"DSTERM","type":"variable","position":{"x":261.086,"y":138.671,"width":58.321,"height":15.744},"identifier":{"form":"ds_ic_dat","page":8,"field":"dsterm","record":45,"domain":"ds","variable":"dsterm"},"style":{"color":"#FF0000","background-color":"#BFFFFF","bolder-style":"dash"}}}}}}}}},"dsstdat":{"id":"DSSTDAT","notsub":false,"noncol":false,"label":"Date of Informed Consent","record":{"46":{"id":46,"raw":{"CDASHDOM":["DS"],"CDASHTYPE":"IG","CDASHVAR":"DSSTDAT","CLASS":"question","CRFCODELAB":null,"CRFDES":"Date of Informed Consent","CRFDOM":"DS","CRFDS":"DS_IC_DAT","CRFDSLAB":"Informed Consent Date","CRFOD":6,"CRFVALUT":null,"CRFVAR":"DSSTDAT","CRFVAROD":4,"CRFVERS":"V1.0_LIVE_30OCT2019_PW","CRFVISDU":[-1],"CRFVISDY":[-1],"CRFVISID":["10_V01"],"CRFVISIT":["Visit 01"],"CRFVISOD":[1],"HEIGHT":15.744,"ID":46,"ORDER":4,"PAGENUMBER":8,"SDTMDOM":["DM","DS","IVRS"],"SDTMTYPE":"IG","SDTMVAR":["DSDTC","DSSTADTC","DSSTDTC","RFICDTC"],"WIDTH":125.544,"X":70.866,"Y":109.671},"location":{"x":70.866,"y":109.671,"width":125.544,"height":15.744},"position":{"x":198.41,"y":107.671,"width":741.6730000000001,"height":15.744},"domain":{"dm":{"id":"DM","label":"Demographics","variable":{"dsdtc":{"id":"DSDTC","element":{"value":"DSDTC","type":"variable","position":{"x":201.41,"y":107.671,"width":48.212,"height":15.744},"identifier":{"form":"ds_ic_dat","page":8,"field":"dsstdat","record":46,"domain":"dm","variable":"dsdtc"},"style":{"color":"#FF0000","background-color":"#FFFF96"}}},"dsstadtc":{"id":"DSSTADTC","element":{"value":"DSSTADTC","type":"variable","position":{"x":249.622,"y":107.671,"width":73.484,"height":15.744},"identifier":{"form":"ds_ic_dat","page":8,"field":"dsstdat","record":46,"domain":"dm","variable":"dsstadtc"},"style":{"color":"#FF0000","background-color":"#FFFF96"}}},"dsstdtc":{"id":"DSSTDTC","element":{"value":"DSSTDTC","type":"variable","position":{"x":323.106,"y":107.671,"width":64.801,"height":15.744},"identifier":{"form":"ds_ic_dat","page":8,"field":"dsstdat","record":46,"domain":"dm","variable":"dsstdtc"},"style":{"color":"#FF0000","background-color":"#FFFF96"}}},"rficdtc":{"id":"RFICDTC","label":"Date/Time of Informed Consent","element":{"value":"RFICDTC","type":"variable","position":{"x":387.90700000000004,"y":107.671,"width":60.394,"height":15.744},"identifier":{"form":"ds_ic_dat","page":8,"field":"dsstdat","record":46,"domain":"dm","variable":"rficdtc"},"style":{"color":"#FF0000","background-color":"#FFFF96"}}}}},"ds":{"id":"DS","label":"Disposition","variable":{"dsdtc":{"id":"DSDTC","label":"Date/Time of Collection","element":{"value":"DSDTC","type":"variable","position":{"x":448.30100000000004,"y":107.671,"width":48.212,"height":15.744},"identifier":{"form":"ds_ic_dat","page":8,"field":"dsstdat","record":46,"domain":"ds","variable":"dsdtc"},"style":{"color":"#FF0000","background-color":"#BFFFFF","bolder-style":"dash"}}},"dsstadtc":{"id":"DSSTADTC","element":{"value":"DSSTADTC","type":"variable","position":{"x":496.51300000000003,"y":107.671,"width":73.484,"height":15.744},"identifier":{"form":"ds_ic_dat","page":8,"field":"dsstdat","record":46,"domain":"ds","variable":"dsstadtc"},"style":{"color":"#FF0000","background-color":"#BFFFFF","bolder-style":"dash"}}},"dsstdtc":{"id":"DSSTDTC","label":"Start Date/Time of Disposition Event","element":{"value":"DSSTDTC","type":"variable","position":{"x":569.997,"y":107.671,"width":64.801,"height":15.744},"identifier":{"form":"ds_ic_dat","page":8,"field":"dsstdat","record":46,"domain":"ds","variable":"dsstdtc"},"style":{"color":"#FF0000","background-color":"#BFFFFF","bolder-style":"dash"}}},"rficdtc":{"id":"RFICDTC","element":{"value":"RFICDTC","type":"variable","position":{"x":634.798,"y":107.671,"width":60.394,"height":15.744},"identifier":{"form":"ds_ic_dat","page":8,"field":"dsstdat","record":46,"domain":"ds","variable":"rficdtc"},"style":{"color":"#FF0000","background-color":"#BFFFFF","bolder-style":"dash"}}}}},"ivrs":{"id":"IVRS","label":"IVRS","variable":{"dsdtc":{"id":"DSDTC","element":{"value":"DSDTC","type":"variable","position":{"x":695.192,"y":107.671,"width":48.212,"height":15.744},"identifier":{"form":"ds_ic_dat","page":8,"field":"dsstdat","record":46,"domain":"ivrs","variable":"dsdtc"},"style":{"color":"#FF0000","background-color":"#96FF96"}}},"dsstadtc":{"id":"DSSTADTC","element":{"value":"DSSTADTC","type":"variable","position":{"x":743.404,"y":107.671,"width":73.484,"height":15.744},"identifier":{"form":"ds_ic_dat","page":8,"field":"dsstdat","record":46,"domain":"ivrs","variable":"dsstadtc"},"style":{"color":"#FF0000","background-color":"#96FF96"}}},"dsstdtc":{"id":"DSSTDTC","element":{"value":"DSSTDTC","type":"variable","position":{"x":816.888,"y":107.671,"width":64.801,"height":15.744},"identifier":{"form":"ds_ic_dat","page":8,"field":"dsstdat","record":46,"domain":"ivrs","variable":"dsstdtc"},"style":{"color":"#FF0000","background-color":"#96FF96"}}},"rficdtc":{"id":"RFICDTC","element":{"value":"RFICDTC","type":"variable","position":{"x":881.6890000000001,"y":107.671,"width":60.394,"height":15.744},"identifier":{"form":"ds_ic_dat","page":8,"field":"dsstdat","record":46,"domain":"ivrs","variable":"rficdtc"},"style":{"color":"#FF0000","background-color":"#96FF96"}}}}}}}}}}}}},"ds_ic_future":{"id":"DS_IC_FUTURE","start":9,"end":null,"notsub":false,"header":{},"page":{"9":{"id":9,"notsub":false,"noncol":false,"position":{"x":72,"y":769,"width":109.31799999999998,"height":18},"header":{"ds":{"id":"DS","style":{"color":"#FF0000","background-color":"#BFFFFF","bolder-style":"dash"},"element":{"value":"DS(Disposition)","type":"domain","position":{"x":72,"y":769,"width":109.318,"height":18},"identifier":{"form":"ds_ic_future","page":9,"field":"dsdecod","record":47,"domain":"ds"},"style":{"color":"#FF0000","background-color":"#BFFFFF","bolder-style":"dash"}}}},"field":{"dsdecod":{"id":"DSDECOD","notsub":false,"noncol":false,"label":"INFORMED CONSENT OBTAINED","record":{"47":{"id":47,"raw":{"CDASHDOM":["DS"],"CDASHTYPE":"IG","CDASHVAR":"DSDECOD","CLASS":"question","CRFCODE":["INFORMED ASSENT OBTAINED FROM JUVENILE","INFORMED CONSENT OBTAINED","INFORMED CONSENT OBTAINED FOR ARCHIVED BIOPSY","INFORMED CONSENT OBTAINED FOR ARCHIVED BLOOD SAMPLES","INFORMED CONSENT OBTAINED FOR CHILD REACHING AGE OF MAJORITY","INFORMED CONSENT OBTAINED FOR DRUG METABOLISM ENZYME","INFORMED CONSENT OBTAINED FOR FRESH BIOPSY","INFORMED CONSENT OBTAINED FOR HIV TESTING","INFORMED CONSENT OBTAINED FOR PHARMACOGENETIC ANALYSIS","INFORMED CONSENT OBTAINED FOR PHARMACOGENETIC BANKING","INFORMED CONSENT OBTAINED FOR PHARMACOGENOMIC","INFORMED CONSENT OBTAINED FOR PHARMACOKINETICS","INFORMED CONSENT OBTAINED FOR STUDY","INFORMED CONSENT OBTAINED FOR USE OF DATA AND SAMPLES FOR FUTURE RESEARCH","INFORMED CONSENT OBTAINED TO PERFORM AUTOPSY","INFORMED CONSENT OBTAINED TO PERFORM HEFH GENOTYPING","INFORMED CONSENT OBTAINED TO USE PREVIOUS HEFH GENOTYPING"],"CRFCODELAB":["Informed Assent Obtained from Juvenile","Informed Consent Obtained","Archived Biopsy Informed Consent Obtained","Archived Blood Samples Informed Consent Obtained","Child Who Reached Age of Majority Informed Consent Obtained","Drug Metabolism Enzyme Informed Consent Obtained","Fresh Biopsy Informed Consent Obtained","HIV Test Informed Consent Obtained","Pharmacogenetic Analysis Informed Consent Obtained","Pharmacogenetic Banking Informed Consent Obtained","Pharmacogenomic Informed Consent Obtained","Pharmacokinetics Informed Consent Obtained","Study Informed Consent Obtained","Informed Consent Obtained for Use of Data and Samples for Future Research","Informed Consent Obtained to Perform Autopsy","Informed Consent Obtained to Perform HeFH Genotyping","Informed Consent Obtained to Use Previous HeFH Genotyping"],"CRFDES":"INFORMED CONSENT OBTAINED","CRFDIC":"INFCST","CRFDOM":"DS","CRFDS":"DS_IC_FUTURE","CRFDSLAB":"Informed Consent for Future Use of Data and Samples","CRFOD":7,"CRFVAL":"INFORMED CONSENT OBTAINED FOR USE OF DATA AND SAMPLES FOR FUTURE RESEARCH","CRFVALUT":null,"CRFVAR":"DSDECOD","CRFVAROD":1,"CRFVERS":"V1.0_LIVE_30OCT2019_PW","CRFVISDU":[-1],"CRFVISDY":[-1],"CRFVISID":["10_V01"],"CRFVISIT":["Visit 01"],"CRFVISOD":[1],"HEIGHT":15.744,"ID":47,"NONCOL":true,"ORDER":1,"PAGENUMBER":9,"SDTMDOM":["DS"],"SDTMTYPE":"IG","SDTMVAR":["DSDECOD"],"WIDTH":185.22,"X":70.866,"Y":666.671},"location":{"x":70.866,"y":666.671,"width":185.22,"height":15.744},"position":{"x":258.086,"y":664.671,"width":69.429,"height":15.744},"domain":{"ds":{"id":"DS","label":"Disposition","variable":{"dsdecod":{"id":"DSDECOD","label":"Standardized Disposition Term","element":{"value":"DSDECOD","type":"variable","position":{"x":261.086,"y":664.671,"width":68.429,"height":15.744},"identifier":{"form":"ds_ic_future","page":9,"field":"dsdecod","record":47,"domain":"ds","variable":"dsdecod"},"style":{"color":"#FF0000","background-color":"#BFFFFF","bolder-style":"dash"}}}}}}}}},"dsterm":{"id":"DSTERM","notsub":false,"noncol":false,"label":"INFORMED CONSENT OBTAINED","record":{"48":{"id":48,"raw":{"CDASHDOM":["DS"],"CDASHTYPE":"IG","CDASHVAR":"DSTERM","CLASS":"question","CRFCODELAB":null,"CRFDES":"INFORMED CONSENT OBTAINED","CRFDOM":"DS","CRFDS":"DS_IC_FUTURE","CRFDSLAB":"Informed Consent for Future Use of Data and Samples","CRFOD":7,"CRFVAL":"INFORMED CONSENT OBTAINED FOR USE OF DATA AND SAMPLES FOR FUTURE RESEARCH","CRFVALUT":null,"CRFVAR":"DSTERM","CRFVAROD":2,"CRFVERS":"V1.0_LIVE_30OCT2019_PW","CRFVISDU":[-1],"CRFVISDY":[-1],"CRFVISID":["10_V01"],"CRFVISIT":["Visit 01"],"CRFVISOD":[1],"HEIGHT":15.744,"ID":48,"NONCOL":true,"ORDER":2,"PAGENUMBER":9,"SDTMDOM":["DS"],"SDTMTYPE":"IG","SDTMVAR":["DSTERM"],"WIDTH":185.22,"X":70.866,"Y":157.671},"location":{"x":70.866,"y":157.671,"width":185.22,"height":15.744},"position":{"x":258.086,"y":155.671,"width":59.321,"height":15.744},"domain":{"ds":{"id":"DS","label":"Disposition","variable":{"dsterm":{"id":"DSTERM","label":"Reported Term for the Disposition Event","element":{"value":"DSTERM","type":"variable","position":{"x":261.086,"y":155.671,"width":58.321,"height":15.744},"identifier":{"form":"ds_ic_future","page":9,"field":"dsterm","record":48,"domain":"ds","variable":"dsterm"},"style":{"color":"#FF0000","background-color":"#BFFFFF","bolder-style":"dash"}}}}}}}}},"dsyn":{"id":"DSYN","notsub":false,"noncol":false,"label":"Informed Consent Obtained for Use of Data and Samples for Future Research?","record":{"49":{"id":49,"raw":{"CDASHDOM":["DS"],"CDASHTYPE":"SANOFI","CDASHVAR":"DSYN","CLASS":"question","CRFCODE":["Y","N"],"CRFCODELAB":["Yes","No"],"CRFDES":"Informed Consent Obtained for Use of Data and Samples for Future Research?","CRFDIC":"NY_YN","CRFDOM":"DS","CRFDS":"DS_IC_FUTURE","CRFDSLAB":"Informed Consent for Future Use of Data and Samples","CRFOD":7,"CRFVALUT":null,"CRFVAR":"DSYN","CRFVAROD":3,"CRFVERS":"V1.0_LIVE_30OCT2019_PW","CRFVISDU":[-1],"CRFVISDY":[-1],"CRFVISID":["10_V01"],"CRFVISIT":["Visit 01"],"CRFVISOD":[1],"HEIGHT":15.744,"ID":49,"ORDER":3,"PAGENUMBER":9,"WIDTH":292.056,"X":70.866,"Y":98.671},"location":{"x":70.866,"y":98.671,"width":292.056,"height":15.744},"position":{"x":364.92199999999997,"y":96.671,"width":1,"height":15.744}}}}}}}},"dm_dob":{"id":"DM_DOB","start":10,"end":null,"notsub":false,"header":{},"page":{"10":{"id":10,"notsub":false,"noncol":false,"position":{"x":72,"y":769,"width":135.324,"height":18},"header":{"dm":{"id":"DM","style":{"color":"#FF0000","background-color":"#BFFFFF","bolder-style":"dash"},"element":{"value":"DM(Demographics)","type":"domain","position":{"x":72,"y":769,"width":135.324,"height":18},"identifier":{"form":"dm_dob","page":10,"field":"brthdat","record":51,"domain":"dm"},"style":{"color":"#FF0000","background-color":"#BFFFFF","bolder-style":"dash"}}}},"field":{"brthyr":{"id":"BRTHYR","notsub":false,"noncol":false,"label":"Year of Birth","record":{"50":{"id":50,"raw":{"CDASHDOM":["DM"],"CDASHTYPE":"SANOFI","CDASHVAR":"BRTHYR","CLASS":"question","CRFCODELAB":null,"CRFDES":"Year of Birth","CRFDOM":"DM","CRFDS":"DM_DOB","CRFDSLAB":"Demographics","CRFOD":8,"CRFVALUT":null,"CRFVAR":"BRTHYR","CRFVAROD":1,"CRFVERS":"V1.0_LIVE_30OCT2019_PW","CRFVISDU":[-1],"CRFVISDY":[-1],"CRFVISID":["10_V01"],"CRFVISIT":["Visit 01"],"CRFVISOD":[1],"HEIGHT":15.744,"ID":50,"ORDER":11,"PAGENUMBER":10,"WIDTH":63.924,"X":70.866,"Y":666.671},"location":{"x":70.866,"y":666.671,"width":63.924,"height":15.744},"position":{"x":136.79,"y":664.671,"width":1,"height":15.744}}}},"brthdat":{"id":"BRTHDAT","notsub":false,"noncol":false,"label":"Date of Birth","record":{"51":{"id":51,"raw":{"CDASHDOM":["DM"],"CDASHTYPE":"IG","CDASHVAR":"BRTHDAT","CLASS":"question","CRFCODELAB":null,"CRFDES":"Date of Birth","CRFDOM":"DM","CRFDS":"DM_DOB","CRFDSLAB":"Demographics","CRFOD":8,"CRFVALUT":null,"CRFVAR":"BRTHDAT","CRFVAROD":4,"CRFVERS":"V1.0_LIVE_30OCT2019_PW","CRFVISDU":[-1],"CRFVISDY":[-1],"CRFVISID":["10_V01"],"CRFVISIT":["Visit 01"],"CRFVISOD":[1],"HEIGHT":15.744,"ID":51,"ORDER":12,"PAGENUMBER":10,"SDTMDOM":["DM"],"SDTMTYPE":"IG","SDTMVAR":["BRTHDTC"],"WIDTH":63.252,"X":70.866,"Y":649.671},"location":{"x":70.866,"y":649.671,"width":63.252,"height":15.744},"position":{"x":136.118,"y":647.671,"width":66.448,"height":15.744},"domain":{"dm":{"id":"DM","label":"Demographics","variable":{"brthdtc":{"id":"BRTHDTC","label":"Date/Time of Birth","element":{"value":"BRTHDTC","type":"variable","position":{"x":139.118,"y":647.671,"width":65.448,"height":15.744},"identifier":{"form":"dm_dob","page":10,"field":"brthdat","record":51,"domain":"dm","variable":"brthdtc"},"style":{"color":"#FF0000","background-color":"#BFFFFF","bolder-style":"dash"}}}}}}}}},"agec":{"id":"AGEC","notsub":false,"noncol":false,"label":"Age","record":{"52":{"id":52,"raw":{"CDASHDOM":["DM"],"CDASHTYPE":"SANOFI","CDASHVAR":"AGEC","CLASS":"question","CRFCODELAB":null,"CRFDES":"Age","CRFDOM":"DM","CRFDS":"DM_DOB","CRFDSLAB":"Demographics","CRFOD":8,"CRFVALUT":null,"CRFVAR":"AGEC","CRFVAROD":5,"CRFVERS":"V1.0_LIVE_30OCT2019_PW","CRFVISDU":[-1],"CRFVISDY":[-1],"CRFVISID":["10_V01"],"CRFVISIT":["Visit 01"],"CRFVISOD":[1],"HEIGHT":15.744,"ID":52,"ORDER":13,"PAGENUMBER":10,"WIDTH":19.98,"X":70.866,"Y":632.671},"location":{"x":70.866,"y":632.671,"width":19.98,"height":15.744},"position":{"x":92.846,"y":630.671,"width":1,"height":15.744}}}},"age":{"id":"AGE","notsub":false,"noncol":false,"label":"Age","record":{"53":{"id":53,"raw":{"CDASHDOM":["DM"],"CDASHTYPE":"IG","CDASHVAR":"AGE","CLASS":"question","CRFCODELAB":null,"CRFDES":"Age","CRFDOM":"DM","CRFDS":"DM_DOB","CRFDSLAB":"Demographics","CRFOD":8,"CRFVALUT":null,"CRFVAR":"AGE","CRFVAROD":6,"CRFVERS":"V1.0_LIVE_30OCT2019_PW","CRFVISDU":[-1],"CRFVISDY":[-1],"CRFVISID":["10_V01"],"CRFVISIT":["Visit 01"],"CRFVISOD":[1],"HEIGHT":15.744,"ID":53,"ORDER":14,"PAGENUMBER":10,"SDTMDOM":["DM"],"SDTMTYPE":"IG","SDTMVAR":["AGE"],"WIDTH":19.98,"X":70.866,"Y":615.671},"location":{"x":70.866,"y":615.671,"width":19.98,"height":15.744},"position":{"x":92.846,"y":613.671,"width":32.104,"height":15.744},"domain":{"dm":{"id":"DM","label":"Demographics","variable":{"age":{"id":"AGE","label":"Age","element":{"value":"AGE","type":"variable","position":{"x":95.846,"y":613.671,"width":31.104,"height":15.744},"identifier":{"form":"dm_dob","page":10,"field":"age","record":53,"domain":"dm","variable":"age"},"style":{"color":"#FF0000","background-color":"#BFFFFF","bolder-style":"dash"}}}}}}}}},"ageu":{"id":"AGEU","notsub":false,"noncol":false,"label":"Unit","record":{"54":{"id":54,"raw":{"CDASHDOM":["DM"],"CDASHTYPE":"IG","CDASHVAR":"AGEU","CLASS":"question","CRFCODE":["HOURS","DAYS","WEEKS","MONTHS","YEARS"],"CRFCODELAB":["Hour","Day","Week","Month","Year"],"CRFDES":"Unit","CRFDIC":"AGEU","CRFDOM":"DM","CRFDS":"DM_DOB","CRFDSLAB":"Demographics","CRFOD":8,"CRFVAL":"YEARS","CRFVALUT":null,"CRFVAR":"AGEU","CRFVAROD":7,"CRFVERS":"V1.0_LIVE_30OCT2019_PW","CRFVISDU":[-1],"CRFVISDY":[-1],"CRFVISID":["10_V01"],"CRFVISIT":["Visit 01"],"CRFVISOD":[1],"HEIGHT":15.744,"ID":54,"NONCOL":true,"ORDER":15,"PAGENUMBER":10,"SDTMDOM":["DM"],"SDTMTYPE":"IG","SDTMVAR":["AGEU"],"WIDTH":21.312,"X":70.866,"Y":598.671},"location":{"x":70.866,"y":598.671,"width":21.312,"height":15.744},"position":{"x":94.178,"y":596.671,"width":41.436,"height":15.744},"domain":{"dm":{"id":"DM","label":"Demographics","variable":{"ageu":{"id":"AGEU","label":"Age Units","element":{"value":"AGEU","type":"variable","position":{"x":97.178,"y":596.671,"width":40.436,"height":15.744},"identifier":{"form":"dm_dob","page":10,"field":"ageu","record":54,"domain":"dm","variable":"ageu"},"style":{"color":"#FF0000","background-color":"#BFFFFF","bolder-style":"dash"}}}}}}}}},"sex":{"id":"SEX","notsub":false,"noncol":false,"label":"Sex","record":{"55":{"id":55,"raw":{"CDASHDOM":["DM"],"CDASHTYPE":"IG","CDASHVAR":"SEX","CLASS":"question","CRFCODE":["M","F"],"CRFCODELAB":["Male","Female"],"CRFDES":"Sex","CRFDIC":"SEX","CRFDOM":"DM","CRFDS":"DM_DOB","CRFDSLAB":"Demographics","CRFOD":8,"CRFVALUT":null,"CRFVAR":"SEX","CRFVAROD":8,"CRFVERS":"V1.0_LIVE_30OCT2019_PW","CRFVISDU":[-1],"CRFVISDY":[-1],"CRFVISID":["10_V01"],"CRFVISIT":["Visit 01"],"CRFVISOD":[1],"HEIGHT":15.744,"ID":55,"ORDER":16,"PAGENUMBER":10,"SDTMDOM":["DM"],"SDTMTYPE":"IG","SDTMVAR":["SEX"],"WIDTH":17.988,"X":70.866,"Y":515.671},"location":{"x":70.866,"y":515.672,"width":17.988,"height":15.744},"position":{"x":90.854,"y":513.672,"width":30.679,"height":15.744},"domain":{"dm":{"id":"DM","label":"Demographics","variable":{"sex":{"id":"SEX","label":"Sex","element":{"value":"SEX","type":"variable","position":{"x":93.854,"y":513.672,"width":29.679,"height":15.744},"identifier":{"form":"dm_dob","page":10,"field":"sex","record":55,"domain":"dm","variable":"sex"},"style":{"color":"#FF0000","background-color":"#BFFFFF","bolder-style":"dash"}}}}}}}}},"ethnic":{"id":"ETHNIC","notsub":false,"noncol":false,"label":"Ethnicity","record":{"56":{"id":56,"raw":{"CDASHDOM":["DM"],"CDASHTYPE":"IG","CDASHVAR":"ETHNIC","CLASS":"question","CRFCODE":["HISPANIC OR LATINO","NOT HISPANIC OR LATINO","NOT REPORTED","UNKNOWN"],"CRFCODELAB":["Hispanic or Latino","Not Hispanic or Latino","Not Reported","Unknown"],"CRFDES":"Ethnicity","CRFDIC":"ETHNIC","CRFDOM":"DM","CRFDS":"DM_DOB","CRFDSLAB":"Demographics","CRFOD":8,"CRFVALUT":null,"CRFVAR":"ETHNIC","CRFVAROD":9,"CRFVERS":"V1.0_LIVE_30OCT2019_PW","CRFVISDU":[-1],"CRFVISDY":[-1],"CRFVISID":["10_V01"],"CRFVISIT":["Visit 01"],"CRFVISOD":[1],"HEIGHT":15.744,"ID":56,"ORDER":17,"PAGENUMBER":10,"SDTMDOM":["DM"],"SDTMTYPE":"IG","SDTMVAR":["ETHNIC"],"WIDTH":43.932,"X":70.866,"Y":480.671},"location":{"x":70.866,"y":480.671,"width":43.932,"height":15.744},"position":{"x":116.798,"y":478.671,"width":52.84,"height":15.744},"domain":{"dm":{"id":"DM","label":"Demographics","variable":{"ethnic":{"id":"ETHNIC","label":"Ethnicity","element":{"value":"ETHNIC","type":"variable","position":{"x":119.798,"y":478.671,"width":51.84,"height":15.744},"identifier":{"form":"dm_dob","page":10,"field":"ethnic","record":56,"domain":"dm","variable":"ethnic"},"style":{"color":"#FF0000","background-color":"#BFFFFF","bolder-style":"dash"}}}}}}}}},"prompt_race":{"id":"PROMPT_RACE","notsub":false,"noncol":false,"label":"Race (Check all that apply):","record":{"57":{"id":57,"raw":{"CDASHDOM":["DM"],"CDASHTYPE":"SANOFI","CDASHVAR":"PROMPT_RACE","CLASS":"question","CRFCODELAB":null,"CRFDES":"Race (Check all that apply):","CRFDOM":"DM","CRFDS":"DM_DOB","CRFDSLAB":"Demographics","CRFOD":8,"CRFVALUT":null,"CRFVAR":"PROMPT_RACE","CRFVAROD":10,"CRFVERS":"V1.0_LIVE_30OCT2019_PW","CRFVISDU":[-1],"CRFVISDY":[-1],"CRFVISID":["10_V01"],"CRFVISIT":["Visit 01"],"CRFVISOD":[1],"HEIGHT":15.948,"ID":57,"ORDER":18,"PAGENUMBER":10,"WIDTH":135.816,"X":70.866,"Y":413.659},"location":{"x":70.866,"y":413.659,"width":135.816,"height":15.948},"position":{"x":208.68200000000002,"y":411.659,"width":1,"height":15.948}}}},"raian":{"id":"RAIAN","notsub":false,"noncol":false,"label":"American Indian or Alaska Native","record":{"58":{"id":58,"raw":{"CDASHDOM":["DM"],"CDASHTYPE":"SANOFI","CDASHVAR":"RAIAN","CLASS":"question","CRFCODELAB":null,"CRFDES":"American Indian or Alaska Native","CRFDOM":"DM","CRFDS":"DM_DOB","CRFDSLAB":"Demographics","CRFOD":8,"CRFVALUT":null,"CRFVAR":"RAIAN","CRFVAROD":11,"CRFVERS":"V1.0_LIVE_30OCT2019_PW","CRFVISDU":[-1],"CRFVISDY":[-1],"CRFVISID":["10_V01"],"CRFVISIT":["Visit 01"],"CRFVISOD":[1],"HEIGHT":15.744,"ID":58,"ORDER":19,"PAGENUMBER":10,"SDTMDOM":["DM"],"SDTMTYPE":"SANOFI","SDTMVAR":["RACE"],"WIDTH":165.12,"X":80.866,"Y":396.671},"location":{"x":80.866,"y":396.671,"width":165.12,"height":15.744},"position":{"x":247.986,"y":394.671,"width":40.658,"height":15.744},"domain":{"dm":{"id":"DM","label":"Demographics","variable":{"race":{"id":"RACE","label":"Race","element":{"value":"RACE","type":"variable","position":{"x":250.986,"y":394.671,"width":39.658,"height":15.744},"identifier":{"form":"dm_dob","page":10,"field":"raian","record":58,"domain":"dm","variable":"race"},"style":{"color":"#FF0000","background-color":"#BFFFFF","bolder-style":"dash"}}}}}}}}},"rblack":{"id":"RBLACK","notsub":false,"noncol":false,"label":"Black or African American","record":{"59":{"id":59,"raw":{"CDASHDOM":["DM"],"CDASHTYPE":"SANOFI","CDASHVAR":"RBLACK","CLASS":"question","CRFCODELAB":null,"CRFDES":"Black or African American","CRFDOM":"DM","CRFDS":"DM_DOB","CRFDSLAB":"Demographics","CRFOD":8,"CRFVALUT":null,"CRFVAR":"RBLACK","CRFVAROD":12,"CRFVERS":"V1.0_LIVE_30OCT2019_PW","CRFVISDU":[-1],"CRFVISDY":[-1],"CRFVISID":["10_V01"],"CRFVISIT":["Visit 01"],"CRFVISOD":[1],"HEIGHT":15.744,"ID":59,"ORDER":20,"PAGENUMBER":10,"SDTMDOM":["DM"],"SDTMTYPE":"SANOFI","SDTMVAR":["RACE"],"WIDTH":130.812,"X":80.866,"Y":379.671},"location":{"x":80.866,"y":379.671,"width":130.813,"height":15.744},"position":{"x":213.67899999999997,"y":377.671,"width":40.658,"height":15.744},"domain":{"dm":{"id":"DM","label":"Demographics","variable":{"race":{"id":"RACE","label":"Race","element":{"value":"RACE","type":"variable","position":{"x":216.67899999999997,"y":377.671,"width":39.658,"height":15.744},"identifier":{"form":"dm_dob","page":10,"field":"rblack","record":59,"domain":"dm","variable":"race"},"style":{"color":"#FF0000","background-color":"#BFFFFF","bolder-style":"dash"}}}}}}}}},"rnhopi":{"id":"RNHOPI","notsub":false,"noncol":false,"label":"Native Hawaiian or Other Pacific Islander","record":{"60":{"id":60,"raw":{"CDASHDOM":["DM"],"CDASHTYPE":"SANOFI","CDASHVAR":"RNHOPI","CLASS":"question","CRFCODELAB":null,"CRFDES":"Native Hawaiian or Other Pacific Islander","CRFDOM":"DM","CRFDS":"DM_DOB","CRFDSLAB":"Demographics","CRFOD":8,"CRFVALUT":null,"CRFVAR":"RNHOPI","CRFVAROD":13,"CRFVERS":"V1.0_LIVE_30OCT2019_PW","CRFVISDU":[-1],"CRFVISDY":[-1],"CRFVISID":["10_V01"],"CRFVISIT":["Visit 01"],"CRFVISOD":[1],"HEIGHT":15.744,"ID":60,"ORDER":21,"PAGENUMBER":10,"SDTMDOM":["DM"],"SDTMTYPE":"SANOFI","SDTMVAR":["RACE"],"WIDTH":202.044,"X":80.866,"Y":362.671},"location":{"x":80.866,"y":362.671,"width":202.044,"height":15.744},"position":{"x":284.91,"y":360.671,"width":40.658,"height":15.744},"domain":{"dm":{"id":"DM","label":"Demographics","variable":{"race":{"id":"RACE","label":"Race","element":{"value":"RACE","type":"variable","position":{"x":287.91,"y":360.671,"width":39.658,"height":15.744},"identifier":{"form":"dm_dob","page":10,"field":"rnhopi","record":60,"domain":"dm","variable":"race"},"style":{"color":"#FF0000","background-color":"#BFFFFF","bolder-style":"dash"}}}}}}}}},"rwhite":{"id":"RWHITE","notsub":false,"noncol":false,"label":"White","record":{"61":{"id":61,"raw":{"CDASHDOM":["DM"],"CDASHTYPE":"SANOFI","CDASHVAR":"RWHITE","CLASS":"question","CRFCODELAB":null,"CRFDES":"White","CRFDOM":"DM","CRFDS":"DM_DOB","CRFDSLAB":"Demographics","CRFOD":8,"CRFVALUT":null,"CRFVAR":"RWHITE","CRFVAROD":14,"CRFVERS":"V1.0_LIVE_30OCT2019_PW","CRFVISDU":[-1],"CRFVISDY":[-1],"CRFVISID":["10_V01"],"CRFVISIT":["Visit 01"],"CRFVISOD":[1],"HEIGHT":15.744,"ID":61,"ORDER":22,"PAGENUMBER":10,"SDTMDOM":["DM"],"SDTMTYPE":"SANOFI","SDTMVAR":["RACE"],"WIDTH":29.28,"X":80.866,"Y":345.671},"location":{"x":80.866,"y":345.671,"width":29.28,"height":15.744},"position":{"x":112.146,"y":343.671,"width":40.658,"height":15.744},"domain":{"dm":{"id":"DM","label":"Demographics","variable":{"race":{"id":"RACE","label":"Race","element":{"value":"RACE","type":"variable","position":{"x":115.146,"y":343.671,"width":39.658,"height":15.744},"identifier":{"form":"dm_dob","page":10,"field":"rwhite","record":61,"domain":"dm","variable":"race"},"style":{"color":"#FF0000","background-color":"#BFFFFF","bolder-style":"dash"}}}}}}}}},"rasian":{"id":"RASIAN","notsub":false,"noncol":false,"label":"Asian","record":{"62":{"id":62,"raw":{"CDASHDOM":["DM"],"CDASHTYPE":"SANOFI","CDASHVAR":"RASIAN","CLASS":"question","CRFCODELAB":null,"CRFDES":"Asian","CRFDOM":"DM","CRFDS":"DM_DOB","CRFDSLAB":"Demographics","CRFOD":8,"CRFVALUT":null,"CRFVAR":"RASIAN","CRFVAROD":15,"CRFVERS":"V1.0_LIVE_30OCT2019_PW","CRFVISDU":[-1],"CRFVISDY":[-1],"CRFVISID":["10_V01"],"CRFVISIT":["Visit 01"],"CRFVISOD":[1],"HEIGHT":15.744,"ID":62,"ORDER":23,"PAGENUMBER":10,"SDTMDOM":["DM"],"SDTMTYPE":"SANOFI","SDTMVAR":["RACE"],"WIDTH":27.972,"X":80.866,"Y":328.671},"location":{"x":80.866,"y":328.671,"width":27.972,"height":15.744},"position":{"x":110.838,"y":326.671,"width":40.658,"height":15.744},"domain":{"dm":{"id":"DM","label":"Demographics","variable":{"race":{"id":"RACE","label":"Race","element":{"value":"RACE","type":"variable","position":{"x":113.838,"y":326.671,"width":39.658,"height":15.744},"identifier":{"form":"dm_dob","page":10,"field":"rasian","record":62,"domain":"dm","variable":"race"},"style":{"color":"#FF0000","background-color":"#BFFFFF","bolder-style":"dash"}}}}}}}}},"rnrep":{"id":"RNREP","notsub":false,"noncol":false,"label":"Not Reported","record":{"63":{"id":63,"raw":{"CDASHDOM":["DM"],"CDASHTYPE":"SANOFI","CDASHVAR":"RNREP","CLASS":"question","CRFCODELAB":null,"CRFDES":"Not Reported","CRFDOM":"DM","CRFDS":"DM_DOB","CRFDSLAB":"Demographics","CRFOD":8,"CRFVALUT":null,"CRFVAR":"RNREP","CRFVAROD":16,"CRFVERS":"V1.0_LIVE_30OCT2019_PW","CRFVISDU":[-1],"CRFVISDY":[-1],"CRFVISID":["10_V01"],"CRFVISIT":["Visit 01"],"CRFVISOD":[1],"HEIGHT":15.744,"ID":63,"ORDER":24,"PAGENUMBER":10,"SDTMDOM":["DM"],"SDTMTYPE":"SANOFI","SDTMVAR":["RACE"],"WIDTH":64.932,"X":80.866,"Y":311.671},"location":{"x":80.866,"y":311.671,"width":64.932,"height":15.744},"position":{"x":147.798,"y":309.671,"width":40.658,"height":15.744},"domain":{"dm":{"id":"DM","label":"Demographics","variable":{"race":{"id":"RACE","label":"Race","element":{"value":"RACE","type":"variable","position":{"x":150.798,"y":309.671,"width":39.658,"height":15.744},"identifier":{"form":"dm_dob","page":10,"field":"rnrep","record":63,"domain":"dm","variable":"race"},"style":{"color":"#FF0000","background-color":"#BFFFFF","bolder-style":"dash"}}}}}}}}},"runk":{"id":"RUNK","notsub":false,"noncol":false,"label":"Unknown","record":{"64":{"id":64,"raw":{"CDASHDOM":["DM"],"CDASHTYPE":"SANOFI","CDASHVAR":"RUNK","CLASS":"question","CRFCODELAB":null,"CRFDES":"Unknown","CRFDOM":"DM","CRFDS":"DM_DOB","CRFDSLAB":"Demographics","CRFOD":8,"CRFVALUT":null,"CRFVAR":"RUNK","CRFVAROD":17,"CRFVERS":"V1.0_LIVE_30OCT2019_PW","CRFVISDU":[-1],"CRFVISDY":[-1],"CRFVISID":["10_V01"],"CRFVISIT":["Visit 01"],"CRFVISOD":[1],"HEIGHT":15.744,"ID":64,"ORDER":25,"PAGENUMBER":10,"SDTMDOM":["DM"],"SDTMTYPE":"SANOFI","SDTMVAR":["RACE"],"WIDTH":47.328,"X":80.866,"Y":294.671},"location":{"x":80.866,"y":294.671,"width":47.328,"height":15.744},"position":{"x":130.19400000000002,"y":292.671,"width":40.658,"height":15.744},"domain":{"dm":{"id":"DM","label":"Demographics","variable":{"race":{"id":"RACE","label":"Race","element":{"value":"RACE","type":"variable","position":{"x":133.19400000000002,"y":292.671,"width":39.658,"height":15.744},"identifier":{"form":"dm_dob","page":10,"field":"runk","record":64,"domain":"dm","variable":"race"},"style":{"color":"#FF0000","background-color":"#BFFFFF","bolder-style":"dash"}}}}}}}}},"prompt_asian":{"id":"PROMPT_ASIAN","notsub":false,"noncol":false,"label":"If Asian, specify the origin reported by the subject. Check all that apply.","record":{"65":{"id":65,"raw":{"CDASHDOM":["DM"],"CDASHTYPE":"SANOFI","CDASHVAR":"PROMPT_ASIAN","CLASS":"question","CRFCODELAB":null,"CRFDES":"If Asian, specify the origin reported by the subject. Check all that apply.","CRFDOM":"DM","CRFDS":"DM_DOB","CRFDSLAB":"Demographics","CRFOD":8,"CRFVALUT":null,"CRFVAR":"PROMPT_ASIAN","CRFVAROD":18,"CRFVERS":"V1.0_LIVE_30OCT2019_PW","CRFVISDU":[-1],"CRFVISDY":[-1],"CRFVISID":["10_V01"],"CRFVISIT":["Visit 01"],"CRFVISOD":[1],"HEIGHT":15.948,"ID":65,"ORDER":26,"PAGENUMBER":10,"WIDTH":345.924,"X":80.866,"Y":277.659},"location":{"x":80.866,"y":277.659,"width":345.924,"height":15.948},"position":{"x":428.78999999999996,"y":275.659,"width":1,"height":15.948}}}},"rchinese":{"id":"RCHINESE","notsub":false,"noncol":false,"label":"Chinese","record":{"66":{"id":66,"raw":{"CDASHDOM":["DM"],"CDASHTYPE":"SANOFI","CDASHVAR":"RCHINESE","CLASS":"question","CRFCODELAB":null,"CRFDES":"Chinese","CRFDOM":"DM","CRFDS":"DM_DOB","CRFDSLAB":"Demographics","CRFOD":8,"CRFVALUT":null,"CRFVAR":"RCHINESE","CRFVAROD":19,"CRFVERS":"V1.0_LIVE_30OCT2019_PW","CRFVISDU":[-1],"CRFVISDY":[-1],"CRFVISID":["10_V01"],"CRFVISIT":["Visit 01"],"CRFVISOD":[1],"HEIGHT":15.744,"ID":66,"ORDER":27,"PAGENUMBER":10,"WIDTH":38.616,"X":70.866,"Y":260.671},"location":{"x":70.866,"y":260.671,"width":38.616,"height":15.744},"position":{"x":111.482,"y":258.671,"width":1,"height":15.744}}}},"rjapan":{"id":"RJAPAN","notsub":false,"noncol":false,"label":"Japanese","record":{"67":{"id":67,"raw":{"CDASHDOM":["DM"],"CDASHTYPE":"SANOFI","CDASHVAR":"RJAPAN","CLASS":"question","CRFCODELAB":null,"CRFDES":"Japanese","CRFDOM":"DM","CRFDS":"DM_DOB","CRFDSLAB":"Demographics","CRFOD":8,"CRFVALUT":null,"CRFVAR":"RJAPAN","CRFVAROD":20,"CRFVERS":"V1.0_LIVE_30OCT2019_PW","CRFVISDU":[-1],"CRFVISDY":[-1],"CRFVISID":["10_V01"],"CRFVISIT":["Visit 01"],"CRFVISOD":[1],"HEIGHT":15.744,"ID":67,"ORDER":28,"PAGENUMBER":10,"WIDTH":42.6,"X":80.866,"Y":243.671},"location":{"x":80.866,"y":243.671,"width":42.6,"height":15.744},"position":{"x":125.46600000000001,"y":241.671,"width":1,"height":15.744}}}},"raindian":{"id":"RAINDIAN","notsub":false,"noncol":false,"label":"Asian Indian","record":{"68":{"id":68,"raw":{"CDASHDOM":["DM"],"CDASHTYPE":"SANOFI","CDASHVAR":"RAINDIAN","CLASS":"question","CRFCODELAB":null,"CRFDES":"Asian Indian","CRFDOM":"DM","CRFDS":"DM_DOB","CRFDSLAB":"Demographics","CRFOD":8,"CRFVALUT":null,"CRFVAR":"RAINDIAN","CRFVAROD":21,"CRFVERS":"V1.0_LIVE_30OCT2019_PW","CRFVISDU":[-1],"CRFVISDY":[-1],"CRFVISID":["10_V01"],"CRFVISIT":["Visit 01"],"CRFVISOD":[1],"HEIGHT":15.744,"ID":68,"ORDER":29,"PAGENUMBER":10,"WIDTH":61.608,"X":80.866,"Y":226.671},"location":{"x":80.866,"y":226.671,"width":61.608,"height":15.744},"position":{"x":144.474,"y":224.671,"width":1,"height":15.744}}}},"rkorean":{"id":"RKOREAN","notsub":false,"noncol":false,"label":"Korean","record":{"69":{"id":69,"raw":{"CDASHDOM":["DM"],"CDASHTYPE":"SANOFI","CDASHVAR":"RKOREAN","CLASS":"question","CRFCODELAB":null,"CRFDES":"Korean","CRFDOM":"DM","CRFDS":"DM_DOB","CRFDSLAB":"Demographics","CRFOD":8,"CRFVALUT":null,"CRFVAR":"RKOREAN","CRFVAROD":22,"CRFVERS":"V1.0_LIVE_30OCT2019_PW","CRFVISDU":[-1],"CRFVISDY":[-1],"CRFVISID":["10_V01"],"CRFVISIT":["Visit 01"],"CRFVISOD":[1],"HEIGHT":15.744,"ID":69,"ORDER":30,"PAGENUMBER":10,"WIDTH":35.292,"X":80.866,"Y":209.671},"location":{"x":80.866,"y":209.671,"width":35.292,"height":15.744},"position":{"x":118.158,"y":207.671,"width":1,"height":15.744}}}},"raother":{"id":"RAOTHER","notsub":false,"noncol":false,"label":"Other Asian Origin","record":{"70":{"id":70,"raw":{"CDASHDOM":["DM"],"CDASHTYPE":"SANOFI","CDASHVAR":"RAOTHER","CLASS":"question","CRFCODELAB":null,"CRFDES":"Other Asian Origin","CRFDOM":"DM","CRFDS":"DM_DOB","CRFDSLAB":"Demographics","CRFOD":8,"CRFVALUT":null,"CRFVAR":"RAOTHER","CRFVAROD":23,"CRFVERS":"V1.0_LIVE_30OCT2019_PW","CRFVISDU":[-1],"CRFVISDY":[-1],"CRFVISID":["10_V01"],"CRFVISIT":["Visit 01"],"CRFVISOD":[1],"HEIGHT":15.744,"ID":70,"ORDER":31,"PAGENUMBER":10,"WIDTH":92.58,"X":80.866,"Y":192.671},"location":{"x":80.866,"y":192.671,"width":92.58,"height":15.744},"position":{"x":175.446,"y":190.671,"width":1,"height":15.744}}}},"raothsp":{"id":"RAOTHSP","notsub":false,"noncol":false,"label":"If Other, Specify.","record":{"71":{"id":71,"raw":{"CDASHDOM":["DM"],"CDASHTYPE":"SANOFI","CDASHVAR":"RAOTHSP","CLASS":"question","CRFCODELAB":null,"CRFDES":"If Other, Specify.","CRFDOM":"DM","CRFDS":"DM_DOB","CRFDSLAB":"Demographics","CRFOD":8,"CRFVALUT":null,"CRFVAR":"RAOTHSP","CRFVAROD":24,"CRFVERS":"V1.0_LIVE_30OCT2019_PW","CRFVISDU":[-1],"CRFVISDY":[-1],"CRFVISID":["10_V01"],"CRFVISIT":["Visit 01"],"CRFVISOD":[1],"HEIGHT":15.744,"ID":71,"ORDER":32,"PAGENUMBER":10,"WIDTH":83.916,"X":80.866,"Y":175.671},"location":{"x":80.866,"y":175.671,"width":83.916,"height":15.744},"position":{"x":166.78199999999998,"y":173.671,"width":1,"height":15.744}}}},"ranrep":{"id":"RANREP","notsub":false,"noncol":false,"label":"Not Reported","record":{"72":{"id":72,"raw":{"CDASHDOM":["DM"],"CDASHTYPE":"SANOFI","CDASHVAR":"RANREP","CLASS":"question","CRFCODELAB":null,"CRFDES":"Not Reported","CRFDOM":"DM","CRFDS":"DM_DOB","CRFDSLAB":"Demographics","CRFOD":8,"CRFVALUT":null,"CRFVAR":"RANREP","CRFVAROD":25,"CRFVERS":"V1.0_LIVE_30OCT2019_PW","CRFVISDU":[-1],"CRFVISDY":[-1],"CRFVISID":["10_V01"],"CRFVISIT":["Visit 01"],"CRFVISOD":[1],"HEIGHT":15.744,"ID":72,"ORDER":33,"PAGENUMBER":10,"WIDTH":64.932,"X":80.866,"Y":158.671},"location":{"x":80.866,"y":158.671,"width":64.932,"height":15.744},"position":{"x":147.798,"y":156.671,"width":1,"height":15.744}}}},"raunk":{"id":"RAUNK","notsub":false,"noncol":false,"label":"Unknown","record":{"73":{"id":73,"raw":{"CDASHDOM":["DM"],"CDASHTYPE":"SANOFI","CDASHVAR":"RAUNK","CLASS":"question","CRFCODELAB":null,"CRFDES":"Unknown","CRFDOM":"DM","CRFDS":"DM_DOB","CRFDSLAB":"Demographics","CRFOD":8,"CRFVALUT":null,"CRFVAR":"RAUNK","CRFVAROD":26,"CRFVERS":"V1.0_LIVE_30OCT2019_PW","CRFVISDU":[-1],"CRFVISDY":[-1],"CRFVISID":["10_V01"],"CRFVISIT":["Visit 01"],"CRFVISOD":[1],"HEIGHT":15.744,"ID":73,"ORDER":34,"PAGENUMBER":10,"WIDTH":47.328,"X":80.866,"Y":141.671},"location":{"x":80.866,"y":141.671,"width":47.328,"height":15.744},"position":{"x":130.19400000000002,"y":139.671,"width":1,"height":15.744}}}}}}}},"ce_vac_ili":{"id":"CE_VAC_ILI","start":11,"end":null,"notsub":false,"header":{},"page":{"11":{"id":11,"notsub":false,"noncol":false,"position":{"x":72,"y":769,"width":134.568,"height":18},"header":{"ce":{"id":"CE","style":{"color":"#FF0000","background-color":"#BFFFFF","bolder-style":"dash"},"element":{"value":"CE(Clinical Events)","type":"domain","position":{"x":72,"y":769,"width":134.568,"height":18},"identifier":{"form":"ce_vac_ili","page":11,"field":"cecat","record":74,"domain":"ce"},"style":{"color":"#FF0000","background-color":"#BFFFFF","bolder-style":"dash"}}}},"field":{"cecat":{"id":"CECAT","notsub":false,"noncol":false,"label":"Category for Clinical Event","record":{"74":{"id":74,"raw":{"CDASHDOM":["CE"],"CDASHTYPE":"IG","CDASHVAR":"CECAT","CLASS":"question","CRFCODE":["ALLERGIC REACTION","BONE FRACTURE","HYPERSENSITIVITY/ALLERGIC REACTION","HYPOGLYCEMIC EVENTS","HYPOGLYCEMIC SYMPTOMS","INJECTION SITE REACTION","MULTIPLE SCLEROSIS","NEUROLOGIC DISORDER","SUSPECTED DENGUE EVENT","SUSPECTED OR CONFIRMED CEREBROVASCULAR EVENT","SUSPECTED OR CONFIRMED DIABETIC KETOACIDOSIS","SUSPECTED OR CONFIRMED HEART FAILURE","SUSPECTED OR CONFIRMED MYOCARDIAL INFARCTION / UNSTABLE ANGINA","SUSPECTED INFLUENZA EVENT"],"CRFCODELAB":["Allergic Reaction","Bone Fracture","Hypersensitivity/Allergic Reaction","Hypoglycemic Events","Hypoglycemic Symptoms","Injection Site Reaction","Multiple Sclerosis","Neurologic Disorder","Suspected Dengue Event","Suspected or Confirmed Cerebrovascular Event","Suspected or Confirmed Diabetic Ketoacidosis","Suspected or Confirmed Heart Failure","Suspected or Confirmed Myocardial Infarction / Unstable Angina","Suspected Influenza Event"],"CRFDES":"Category for Clinical Event","CRFDIC":"CECAT","CRFDOM":"CE","CRFDS":"CE_VAC_ILI","CRFDSLAB":"Influenza Like Illness","CRFOD":9,"CRFVAL":"SUSPECTED INFLUENZA EVENT","CRFVALUT":null,"CRFVAR":"CECAT","CRFVAROD":1,"CRFVERS":"V1.0_LIVE_30OCT2019_PW","CRFVISDU":[-1,-1],"CRFVISDY":[-1,-1],"CRFVISID":["40_V04","50_V05"],"CRFVISIT":["Visit 04","Visit 05"],"CRFVISOD":[5,6],"HEIGHT":15.744,"ID":74,"NONCOL":true,"ORDER":1,"PAGENUMBER":11,"SDTMDOM":["CE"],"SDTMTYPE":"IG","SDTMVAR":["CECAT"],"WIDTH":132.816,"X":70.866,"Y":666.671},"location":{"x":70.866,"y":666.671,"width":132.816,"height":15.744},"position":{"x":205.68200000000002,"y":664.671,"width":48.564,"height":15.744},"domain":{"ce":{"id":"CE","label":"Clinical Events","variable":{"cecat":{"id":"CECAT","label":"Category for the Clinical Event","element":{"value":"CECAT","type":"variable","position":{"x":208.68200000000002,"y":664.671,"width":47.564,"height":15.744},"identifier":{"form":"ce_vac_ili","page":11,"field":"cecat","record":74,"domain":"ce","variable":"cecat"},"style":{"color":"#FF0000","background-color":"#BFFFFF","bolder-style":"dash"}}}}}}}}},"ceyn":{"id":"CEYN","notsub":false,"noncol":false,"label":"Did the subject experience any Influenza Like Illness since last visit?","record":{"75":{"id":75,"raw":{"CDASHDOM":["CE"],"CDASHTYPE":"IG","CDASHVAR":"CEYN","CLASS":"question","CRFCODE":["Y","N"],"CRFCODELAB":["Yes","No"],"CRFDES":"Did the subject experience any Influenza Like Illness since last visit?","CRFDIC":"NY_YN","CRFDOM":"CE","CRFDS":"CE_VAC_ILI","CRFDSLAB":"Influenza Like Illness","CRFOD":9,"CRFVALUT":null,"CRFVAR":"CEYN","CRFVAROD":2,"CRFVERS":"V1.0_LIVE_30OCT2019_PW","CRFVISDU":[-1,-1],"CRFVISDY":[-1,-1],"CRFVISID":["40_V04","50_V05"],"CRFVISIT":["Visit 04","Visit 05"],"CRFVISOD":[5,6],"HEIGHT":15.744,"ID":75,"ORDER":23,"PAGENUMBER":11,"WIDTH":302.568,"X":70.866,"Y":365.671},"location":{"x":70.866,"y":365.671,"width":302.568,"height":15.744},"position":{"x":375.43399999999997,"y":363.671,"width":1,"height":15.744}}}},"prompt_ce":{"id":"PROMPT_CE","notsub":false,"noncol":false,"label":"If the subject experienced influenza like illness, provide all the action taken.  If not, leave all the fields blank.","record":{"76":{"id":76,"raw":{"CDASHDOM":["CE"],"CDASHTYPE":"SANOFI","CDASHVAR":"PROMPT_CE","CLASS":"question","CRFCODELAB":null,"CRFDES":"If the subject experienced influenza like illness, provide all the action taken.  If not, leave all the fields blank.","CRFDOM":"CE","CRFDS":"CE_VAC_ILI","CRFDSLAB":"Influenza Like Illness","CRFOD":9,"CRFVALUT":null,"CRFVAR":"PROMPT_CE","CRFVAROD":3,"CRFVERS":"V1.0_LIVE_30OCT2019_PW","CRFVISDU":[-1,-1],"CRFVISDY":[-1,-1],"CRFVISID":["40_V04","50_V05"],"CRFVISIT":["Visit 04","Visit 05"],"CRFVISOD":[5,6],"HEIGHT":15.744,"ID":76,"ORDER":26,"PAGENUMBER":11,"WIDTH":461.328,"X":70.866,"Y":330.671},"location":{"x":70.866,"y":330.671,"width":461.328,"height":15.744},"position":{"x":534.194,"y":328.671,"width":1,"height":15.744}}}},"cespid":{"id":"CESPID","notsub":false,"noncol":false,"label":"Episode ID","record":{"77":{"id":77,"raw":{"CDASHDOM":["CE"],"CDASHTYPE":"IG","CDASHVAR":"CESPID","CLASS":"question","CRFCODELAB":null,"CRFDES":"Episode ID","CRFDOM":"CE","CRFDS":"CE_VAC_ILI","CRFDSLAB":"Influenza Like Illness","CRFOD":9,"CRFVALUT":null,"CRFVAR":"CESPID","CRFVAROD":4,"CRFVERS":"V1.0_LIVE_30OCT2019_PW","CRFVISDU":[-1,-1],"CRFVISDY":[-1,-1],"CRFVISID":["40_V04","50_V05"],"CRFVISIT":["Visit 04","Visit 05"],"CRFVISOD":[5,6],"HEIGHT":15.744,"ID":77,"ORDER":28,"PAGENUMBER":11,"SDTMDOM":["CE"],"SDTMTYPE":"IG","SDTMVAR":["CESPID"],"WIDTH":54.288,"X":70.866,"Y":296.671},"location":{"x":70.866,"y":296.671,"width":54.288,"height":15.744},"position":{"x":127.154,"y":294.671,"width":52.97,"height":15.744},"domain":{"ce":{"id":"CE","label":"Clinical Events","variable":{"cespid":{"id":"CESPID","label":"Sponsor-Defined Identifier","element":{"value":"CESPID","type":"variable","position":{"x":130.154,"y":294.671,"width":51.97,"height":15.744},"identifier":{"form":"ce_vac_ili","page":11,"field":"cespid","record":77,"domain":"ce","variable":"cespid"},"style":{"color":"#FF0000","background-color":"#BFFFFF","bolder-style":"dash"}}}}}}}}},"ceterm":{"id":"CETERM","notsub":false,"noncol":false,"label":"Clinical Event Term","record":{"78":{"id":78,"raw":{"CDASHDOM":["CE"],"CDASHTYPE":"IG","CDASHVAR":"CETERM","CLASS":"question","CRFCODELAB":null,"CRFDES":"Clinical Event Term","CRFDOM":"CE","CRFDS":"CE_VAC_ILI","CRFDSLAB":"Influenza Like Illness","CRFOD":9,"CRFVAL":"INFLUENZA LIKE ILLNESS","CRFVALUT":null,"CRFVAR":"CETERM","CRFVAROD":5,"CRFVERS":"V1.0_LIVE_30OCT2019_PW","CRFVISDU":[-1,-1],"CRFVISDY":[-1,-1],"CRFVISID":["40_V04","50_V05"],"CRFVISIT":["Visit 04","Visit 05"],"CRFVISOD":[5,6],"HEIGHT":15.744,"ID":78,"NONCOL":true,"ORDER":29,"PAGENUMBER":11,"SDTMDOM":["CE"],"SDTMTYPE":"IG","SDTMVAR":["CETERM"],"WIDTH":97.836,"X":70.866,"Y":279.671},"location":{"x":70.866,"y":279.671,"width":97.836,"height":15.744},"position":{"x":170.702,"y":277.671,"width":59.321,"height":15.744},"domain":{"ce":{"id":"CE","label":"Clinical Events","variable":{"ceterm":{"id":"CETERM","label":"Reported Term for the Clinical Event","element":{"value":"CETERM","type":"variable","position":{"x":173.702,"y":277.671,"width":58.321,"height":15.744},"identifier":{"form":"ce_vac_ili","page":11,"field":"ceterm","record":78,"domain":"ce","variable":"ceterm"},"style":{"color":"#FF0000","background-color":"#BFFFFF","bolder-style":"dash"}}}}}}}}},"cepresp":{"id":"CEPRESP","notsub":false,"noncol":false,"label":"Pre-specified?","record":{"79":{"id":79,"raw":{"CDASHDOM":["CE"],"CDASHTYPE":"IG","CDASHVAR":"CEPRESP","CLASS":"question","CRFCODE":["Y","N"],"CRFCODELAB":["Yes","No"],"CRFDES":"Pre-specified?","CRFDIC":"NY_YN","CRFDOM":"CE","CRFDS":"CE_VAC_ILI","CRFDSLAB":"Influenza Like Illness","CRFOD":9,"CRFVAL":"Y","CRFVALUT":null,"CRFVAR":"CEPRESP","CRFVAROD":6,"CRFVERS":"V1.0_LIVE_30OCT2019_PW","CRFVISDU":[-1,-1],"CRFVISDY":[-1,-1],"CRFVISID":["40_V04","50_V05"],"CRFVISIT":["Visit 04","Visit 05"],"CRFVISOD":[5,6],"HEIGHT":15.744,"ID":79,"NONCOL":true,"ORDER":30,"PAGENUMBER":11,"SDTMDOM":["CE"],"SDTMTYPE":"IG","SDTMVAR":["CEPRESP"],"WIDTH":68.556,"X":70.866,"Y":262.671},"location":{"x":70.866,"y":262.671,"width":68.556,"height":15.744},"position":{"x":141.422,"y":260.671,"width":66.708,"height":15.744},"domain":{"ce":{"id":"CE","label":"Clinical Events","variable":{"cepresp":{"id":"CEPRESP","label":"Clinical Event Pre-specified","element":{"value":"CEPRESP","type":"variable","position":{"x":144.422,"y":260.671,"width":65.708,"height":15.744},"identifier":{"form":"ce_vac_ili","page":11,"field":"cepresp","record":79,"domain":"ce","variable":"cepresp"},"style":{"color":"#FF0000","background-color":"#BFFFFF","bolder-style":"dash"}}}}}}}}},"ceacmed":{"id":"CEACMED","notsub":false,"noncol":false,"label":"Medication","record":{"80":{"id":80,"raw":{"CDASHDOM":["CE"],"CDASHTYPE":"SANOFI","CDASHVAR":"CEACMED","CLASS":"question","CRFCODELAB":null,"CRFDES":"Medication","CRFDOM":"CE","CRFDS":"CE_VAC_ILI","CRFDSLAB":"Influenza Like Illness","CRFOD":9,"CRFVALUT":null,"CRFVAR":"CEACMED","CRFVAROD":7,"CRFVERS":"V1.0_LIVE_30OCT2019_PW","CRFVISDU":[-1,-1],"CRFVISDY":[-1,-1],"CRFVISID":["40_V04","50_V05"],"CRFVISIT":["Visit 04","Visit 05"],"CRFVISOD":[5,6],"HEIGHT":15.744,"ID":80,"ORDER":34,"PAGENUMBER":11,"WIDTH":54.588,"X":70.866,"Y":227.671},"location":{"x":70.866,"y":227.671,"width":54.588,"height":15.744},"position":{"x":127.45400000000001,"y":225.671,"width":1,"height":15.744}}}},"ceacthc":{"id":"CEACTHC","notsub":false,"noncol":false,"label":"Health Care Visit","record":{"81":{"id":81,"raw":{"CDASHDOM":["CE"],"CDASHTYPE":"SANOFI","CDASHVAR":"CEACTHC","CLASS":"question","CRFCODELAB":null,"CRFDES":"Health Care Visit","CRFDOM":"CE","CRFDS":"CE_VAC_ILI","CRFDSLAB":"Influenza Like Illness","CRFOD":9,"CRFVALUT":null,"CRFVAR":"CEACTHC","CRFVAROD":8,"CRFVERS":"V1.0_LIVE_30OCT2019_PW","CRFVISDU":[-1,-1],"CRFVISDY":[-1,-1],"CRFVISID":["40_V04","50_V05"],"CRFVISIT":["Visit 04","Visit 05"],"CRFVISOD":[5,6],"HEIGHT":15.744,"ID":81,"ORDER":35,"PAGENUMBER":11,"WIDTH":83.868,"X":70.866,"Y":210.671},"location":{"x":70.866,"y":210.671,"width":83.868,"height":15.744},"position":{"x":156.73399999999998,"y":208.671,"width":1,"height":15.744}}}},"ceactho":{"id":"CEACTHO","notsub":false,"noncol":false,"label":"Hospitalized","record":{"82":{"id":82,"raw":{"CDASHDOM":["CE"],"CDASHTYPE":"SANOFI","CDASHVAR":"CEACTHO","CLASS":"question","CRFCODELAB":null,"CRFDES":"Hospitalized","CRFDOM":"CE","CRFDS":"CE_VAC_ILI","CRFDSLAB":"Influenza Like Illness","CRFOD":9,"CRFVALUT":null,"CRFVAR":"CEACTHO","CRFVAROD":9,"CRFVERS":"V1.0_LIVE_30OCT2019_PW","CRFVISDU":[-1,-1],"CRFVISDY":[-1,-1],"CRFVISID":["40_V04","50_V05"],"CRFVISIT":["Visit 04","Visit 05"],"CRFVISOD":[5,6],"HEIGHT":15.744,"ID":82,"ORDER":36,"PAGENUMBER":11,"WIDTH":60.576,"X":70.866,"Y":193.671},"location":{"x":70.866,"y":193.671,"width":60.576,"height":15.744},"position":{"x":133.442,"y":191.671,"width":1,"height":15.744}}}},"ceactn":{"id":"CEACTN","notsub":false,"noncol":false,"label":"No Action Taken","record":{"83":{"id":83,"raw":{"CDASHDOM":["CE"],"CDASHTYPE":"SANOFI","CDASHVAR":"CEACTN","CLASS":"question","CRFCODELAB":null,"CRFDES":"No Action Taken","CRFDOM":"CE","CRFDS":"CE_VAC_ILI","CRFDSLAB":"Influenza Like Illness","CRFOD":9,"CRFVALUT":null,"CRFVAR":"CEACTN","CRFVAROD":10,"CRFVERS":"V1.0_LIVE_30OCT2019_PW","CRFVISDU":[-1,-1],"CRFVISDY":[-1,-1],"CRFVISID":["40_V04","50_V05"],"CRFVISIT":["Visit 04","Visit 05"],"CRFVISOD":[5,6],"HEIGHT":15.744,"ID":83,"ORDER":37,"PAGENUMBER":11,"WIDTH":83.244,"X":70.866,"Y":176.671},"location":{"x":70.866,"y":176.671,"width":83.244,"height":15.744},"position":{"x":156.11,"y":174.671,"width":1,"height":15.744}}}},"cedur":{"id":"CEDUR","notsub":false,"noncol":false,"label":"Duration","record":{"84":{"id":84,"raw":{"CDASHDOM":["CE"],"CDASHTYPE":"SANOFI","CDASHVAR":"CEDUR","CLASS":"question","CRFCODELAB":null,"CRFDES":"Duration","CRFDOM":"CE","CRFDS":"CE_VAC_ILI","CRFDSLAB":"Influenza Like Illness","CRFOD":9,"CRFVALUT":"Days","CRFVAR":"CEDUR","CRFVAROD":11,"CRFVERS":"V1.0_LIVE_30OCT2019_PW","CRFVISDU":[-1,-1],"CRFVISDY":[-1,-1],"CRFVISID":["40_V04","50_V05"],"CRFVISIT":["Visit 04","Visit 05"],"CRFVISOD":[5,6],"HEIGHT":15.744,"ID":84,"ORDER":38,"PAGENUMBER":11,"WIDTH":42.624,"X":70.866,"Y":159.671},"location":{"x":70.866,"y":159.671,"width":42.624,"height":15.744},"position":{"x":115.49000000000001,"y":157.671,"width":1,"height":15.744}}}},"ceduru":{"id":"CEDURU","notsub":false,"noncol":false,"label":"Duration Unit","record":{"85":{"id":85,"raw":{"CDASHDOM":["CE"],"CDASHTYPE":"SANOFI","CDASHVAR":"CEDURU","CLASS":"question","CRFCODE":["%","% INHIBITION","%(v/v)","%(w/v)","%(w/w)","%/min","%cells/area","/100 HPFs","/100 WBC","/10^3 cells","/HPF","/L","/LPF","/VF","/dL","/day","/h","/kg","/mL","/mm3","/month","/nL","/pL","/uL","/wk","/year","1/dilution","100 IU/mL","10^10/L","10^11/L","10^12 IU/L","10^12/L","10^3 CFU","10^3 CFU/g","10^3 CFU/mL","10^3 DNA copies/mL","10^3 RNA copies/mL","10^3 copies/mL","10^3 organisms","10^3 organisms/g","10^3 organisms/mL","10^3/L","10^3/hpf","10^3/mm3","10^3/mm4","10^3/uL","10^4/L","10^4/hpf","10^5/L","10^5/hpf","10^6 CFU","10^6 CFU/g","10^6 CFU/mL","10^6 DNA copies/mL","10^6 IU","10^6 IU/mL","10^6 RNA copies/mL","10^6 copies/mL","10^6 organisms","10^6 organisms/g","10^6 organisms/mL","10^6 organisms/mg","10^6/L","10^6/g","10^6/hpf","10^6/mm3","10^6/uL","10^7/L","10^8/L","10^9 CFU","10^9 CFU/g","10^9 CFU/mL","10^9 organisms","10^9 organisms/g","10^9 organisms/mL","10^9 organisms/mg","10^9/L","AFU","AI","AMPULE","APL U/mL","APPLICATION","ASC","AU","AU/mL","AU/min","AgU/mL","Antibody Unit","BAG","BAR","BAU","BAU/mL","BE/mL","BEATS/MIN","BISCUIT","BLOCKS","BOLUS","BOTTLE","BOX","BREATHS/MIN","BU","BU/mL","Bq","Bq/L","Bq/g","Bq/kg","Bq/mL","Bq/mg","Bq/uL","Bq/ug","C","CAE","CAN","CAPFUL","CAPLET","CAPSULE","CARTRIDGE","CASE","CCID 50/dose","CCID 50/mL","CFU/g","CFU/mL","CIGAR","CIGARETTE","COAT","COI","CONTAINER","CUP","CYLINDER","Ci","Ci/L","Ci/g","Ci/kg","Ci/mL","Ci/mg","Ci/uL","Ci/ug","Coulomb","Ct","DAYS","DAgU","DAgU/mL","DIOPTER","DISK","DNA copies/mL","DPM","DRUM","EID 50/dose","EID 50/mL","ELISA unit","ELISA unit/dose","ELISA unit/mL","EU","Enzyme U","F","FEU","FINGERTIP UNIT","Farad","Frames/s","GBq","GBq/g","GBq/mg","GBq/ug","GI/L","GLASS","GPL U/mL","Gauss","Gy","HAU/100 uL","HEP","HOMEOPATHIC DILUTION","HOURS","HPF","Hb Fract.","Hemolytic Unit","Henry","Hounsfield Unit","Hz","IMPLANT","INDEX VALUE","INHALATION","IU","IU/L","IU/dL","IU/g","IU/kg","IU/kg/h","IU/mL","IU/mg","IU^4","IV","Immune Status Ratio (ISR)","JAR","Joule","KALLIKREIN INHIBITOR UNIT","KIT","L","L/L","L/h","L/h/m2","L/kg","L/min","L/min/m2","L/s","LB","LOZENGE","LPF","Log10 ELISA unit","Log10 ELISA unit/dose","Log10 GEq/mL","Log10 PFU/mL","MBq","MBq/uL","MESF","MFI","MHz","MONTHS","MPL U/mL","Mile","NEBULE","NEEDLE GAUGE","NIU","Newton","PACK","PACKAGE","PACKET","PATCH","PELLET","PFU","PFU/dose","PFU/mL","PIPE","PIXEL","PIXELS/cm","PIXELS/in","PNU/mL","POINT","POUCH","PRESSOR UNITS","PUFF","Pa","Pack Year","Perfusion unit","Perfusion unit*sec","QUANTITY SUFFICIENT","RATIO","RING","RNA copies/mL","Rad","Roentgen","SACHET","SBE/mL","SCO","SCOOPFUL","SFC","SFC/10^6 PBMC","SPRAY","SQU/mL","STANDARD DRINK/day","STEPS","STRIP","SUPPOSITORY","SYRINGE","Shock Wave","Siemens","Signals/cells","Sv","TABLET","TAMPON","TCID 50/dose","TI/L","TRACE","TROCHE","TUBE","Tbsp","Tesla","Torr","U","U.CARR","U/L","U/animal","U/cL","U/dL","U/g","U/g/day","U/g/h","U/g/min","U/kg","U/kg/day","U/kg/h","U/kg/min","U/m2","U/m2/day","U/m2/h","U/m2/min","U/mL","U/mg","U/mmol","V","V/sec","VIAL","VIRTUAL PIXEL","WAFER","WEEKS","Watt","Weber","YEARS","ag","amol","amp","amu","anti-Xa IU","anti-Xa IU/mL","atm","bel","cGy","cL","cal","cc","cd","cells/mm3","cells/uL","cg","cm","cm H2O","cm/min","cm/s","cm2","cmol","cmol/L","copies/mL","copies/uL","cpm","cs","cy/cm","cycle/min","cycle/sec","dB","dL","damol/L","deg","dmol","dpm/0.5 mL","dpm/100mg","dpm/mL","dpm/mg","dram","dyn","eq","fL","fg","fmol","fmol/L","fmol/g","foz_br","foz_us","fraction of 1","ft","ft2","ft3","g","g/24h","g/L","g/animal","g/animal/day","g/animal/wk","g/cage","g/cage/day","g/cage/wk","g/cm2","g/dL","g/day","g/g","g/g Creatinine","g/g/day","g/kg","g/kg/day","g/m2","g/m2/day","g/mol","grain","gtt","hPa","in","in2","kAU/L","kBq","kBq/uL","kDa","kHz","kIU","kN/cm2","kPa","kPa/L/sec","kU/L","kUSP","kat","kcal","kg","kg/L","kg/cm","kg/cm2","kg/m2","km","km/h","ks","lbf","lm","log EID 50/dose","log10 CCID 50/dose","log10 CFU/g","log10 CFU/mL","log10 IU/mL","log10 TCID 50/dose","log10 copies/mL","lx","m","m/sec","m/sec2","m2","m3","mCi","mCi/L","mCi/kg","mEq","mEq/L","mEq/dL","mEq/day","mEq/g","mEq/kg","mEq/mL","mEq/mmol","mEq/uL","mEq/ug","mIU/L","mIU/mL","mJoule/cm2","mL","mL/animal","mL/animal/day","mL/animal/wk","mL/breath","mL/cage","mL/cage/day","mL/cage/wk","mL/cm","mL/cm H2O","mL/dL","mL/day","mL/g","mL/g/day","mL/g/h","mL/g/min","mL/h","mL/h/uL of lysat","mL/kg","mL/kg/day","mL/kg/h","mL/kg/min","mL/m2","mL/m2/day","mL/m2/h","mL/m2/min","mL/min","mL/min/1.73m2","mL/min/SSA","mL/min/mmHg","mL/mmHg","mL/mmHg/min/L","mL/s","mL/sec/1.73m2","mOsm","mOsm/kg","mPa","mU/L","mU/mL","mV","mV*min","mV2/Hz","mcg/dL","mg","mg%","mg/24h","mg/L","mg/L FEU","mg/animal","mg/dL","mg/day","mg/g","mg/g Creatinine","mg/g/day","mg/g/h","mg/g/min","mg/h","mg/kg","mg/kg/day","mg/kg/h","mg/kg/min","mg/m2","mg/m2/day","mg/m2/h","mg/m2/min","mg/mL/min","mg/min","mg/mmol Creatinine","mg/mol","min","mkat","mm","mm/2h","mm/h","mm/min","mm/sec","mm2","mm3","mmHg","mmHg/L/min","mmHg/sec","mmol","mmol FA/mL/h","mmol/L","mmol/day","mmol/g","mmol/kg","mmol/min/kPa","mmol/min/kPa/L","mmol/mol","mmol^2/L^2","mol","mol/L","mol/g","mol/mL","mol/mg","mol/mol","mph","msec","nCi","nL","nU/cL","nU/mL","ng","ng/L","ng/dL","ng/mL","nkat","nkat/L","nm","nmol","nmol BCE/L","nmol BCE/mmol","nmol/L","nmol/dL","nmol/hr/mg protein","nmol/mL/min","nmol/min/mg protein","nsec","ohm","osm","oz","pL","per min","per sec","pg","pg/L","pg/dL","pg/mL","pkat","pm","pmol","pmol/L","pmol/min/uL of lysat","pmol/punch/hr","pools/day","pools/h","ppb","ppm","ppth","pptr","psec","psi","pt_br","pt_us","rpm","sABC","sMEC","scm","sec","titer","tsp","tuberculin unit","tuberculin unit/mL","uCi","uCi/L","uCi/kg","uEq","uEq/L","uIU/mL","uL","uL/mL","uOsM","uU/mL","uV","uV*sec","ug","ug/L","ug/animal","ug/dL","ug/day","ug/g/day","ug/g/h","ug/g/min","ug/h","ug/kg","ug/kg/day","ug/kg/h","ug/kg/min","ug/m2","ug/m2/day","ug/m2/h","ug/m2/min","ug/mL","ug/mL/h","ug/min","ugEq","ukat","ukat/L","um","um2","umol","umol/L","umol/L/min","umol/L/sec","umol/day","umol/mg/min","umol/min","usec","v/v","yd","NONE","OTHER"],"CRFCODELAB":["%","% INHIBITION","%(v/v)","%(w/v)","%(w/w)","%/min","%cells/area","/100 HPFs","/100 WBC","/10^3 cells","/HPF","/L","/LPF","/VF","/dL","/day","/h","/kg","/mL","/mm3","/month","/nL","/pL","/uL","/week","/year","1/dilution","100 IU/mL","10^10/L","10^11/L","10^12 IU/L","10^12/L","10^3 CFU","10^3 CFU/g","10^3 CFU/mL","10^3 DNA copies/mL","10^3 RNA copies/mL","10^3 copies/mL","10^3 organisms","10^3 organisms/g","10^3 organisms/mL","10^3/L","10^3/hpf","10^3/mm3","10^3/mm4","10^3/uL","10^4/L","10^4/hpf","10^5/L","10^5/hpf","10^6 CFU","10^6 CFU/g","10^6 CFU/mL","10^6 DNA copies/mL","10^6 IU","10^6 IU/mL","10^6 RNA copies/mL","10^6 copies/mL","10^6 organisms","10^6 organisms/g","10^6 organisms/mL","10^6 organisms/mg","10^6/L","10^6/g","10^6/hpf","10^6/mm3","10^6/uL","10^7/L","10^8/L","10^9 CFU","10^9 CFU/g","10^9 CFU/mL","10^9 organisms","10^9 organisms/g","10^9 organisms/mL","10^9 organisms/mg","10^9/L","AFU","Antibody Index (AI)","Ampule","APL U/mL","Application Unit","Antibody-Secreting Cells","AU","Allergy Unit/mL","AU/min","AgU/mL","Antibody Unit","Bag","Bar","BAU","BAU/mL","BE/mL","Beats/min","Biscuit","Block Unit of Distance","Bolus","Bottle","Box","Breaths/min","BU","BU/mL","Bq","Bq/L","Bq/g","Bq/kg","Bq/mL","Bq/mg","Bq/uL","Bq/ug","C","CAE Unit","Can","Capful","Caplet","Capsule","Cartridge","Case","CCID 50/dose","CCID 50/mL","CFU/g","CFU/mL","Cigar","Cigarette","Coat","Cutoff Index","Container","Cup","Cylinder","Ci","Ci/L","Ci/g","Ci/kg","Ci/mL","Ci/mg","Ci/uL","Ci/ug","Coulomb","Ct","Day","DAgU","D Antigen Unit/mL","Diopter","Disk","DNA copies/mL","dpm","Drum","EID 50/dose","EID 50/mL","ELISA unit","ELISA unit/dose","ELISA unit/mL","Ehrlich Unit","Enzyme U","F","FEU","FINGERTIP UNIT","Farad","Frames/sec","GBq","GBq/g","GBq/mg","GBq/ug","GI/L","Glass","GPL U/mL","Gauss","Gray","HAU/100 uL","Histamine Equivalent Prick Unit","Homeopathic Dilution Unit","Hour","HPF","Hb Fract.","Hemolytic Unit","Henry","HU","Hz","Implant","Index Value","Inhalation","IU","IU/L","IU/dL","IU/g","IU/kg","IU/kg/h","IU/mL","IU/mg","IU^4","IV","Immune Status Ratio (ISR)","Jar","Joule","Kallikrein Inhibitor Unit","Kit","L","L/L","L/h","L/h/m2","L/kg","L/min","L/min/m2","L/sec","LB","Lozenge","LPF","Log10 ELISA unit","Log10 ELISA unit/dose","Log10 GEq/mL","Log10 PFU/mL","MBq","MBq/uL","MESF","MFI","MHz","Month","MPL U/mL","Mile","Nebule","Needle Gauge","NIU","Newton","Pack","Package","Packet","Patch","Pellet","PFU","PFU/dose","PFU/mL","Pipe Dosing Unit","PIXEL","PIXELS/cm","PIXELS/in","PNU/mL","Point","Pouch","Pressor Unit","Puff","Pa","Pack Year","Perfusion unit","Perfusion unit*sec","Quantity Sufficient","Ratio","Ring","RNA copies/mL","Rad","Roentgen","Sachet","SBE/mL","Signal to cut-off (S/CO) ratio","Scoopful","Spot-Forming Cells","SFC/10^6 PBMC","Spray","SQU/mL","Standard Drink/day","Steps","Strip","Suppository","Syringe","Shock Wave","Siemens","Signals/cells","Sv","Tablet","Tampon","TCID 50/dose","TI/L","Trace","Troche","Tube","Tbsp","Tesla","Torr","U","U.CARR","U/L","U/animal","U/cL","U/dL","U/g","U/g/day","U/g/h","U/g/min","U/kg","U/kg/day","U/kg/h","U/kg/min","U/m2","U/m2/day","U/m2/h","U/m2/min","U/mL","U/mg","U/mmol","V","V/sec","Vial","Virtual Pixel","Wafer","Week","Watt","Weber","Year","ag","amol","amp","amu","anti-Xa IU","anti-Xa IU/mL","atm","Bel","cGy","cL","cal","cc","cd","cells/mm3","cells/uL","cg","cm","cm H2O","cm/min","cm/sec","cm2","cmol","cmol/L","copies/mL","copies/uL","cpm","csec","cy/cm","cycle/min","cycle/sec","dB","dL","damol/L","deg","dmol","dpm/0.5 mL","dpm/100mg","dpm/mL","dpm/mg","dram","dyn","eq","fL","fg","fmol","fmol/L","fmol/g","foz_br","foz_us","Fraction of 1","ft","ft2","ft3","g","g/24h","g/L","g/animal","g/animal/day","g/animal/week","g/cage","g/cage/day","g/cage/week","g/cm2","g/dL","g/day","g/g","g/g Creatinine","g/g/day","g/kg","g/kg/day","g/m2","g/m2/day","g/mol","Grain","Drop","hPa","in","in2","kAU/L","kBq","kBq/uL","kDa","kHz","kIU","kN/cm2","kPa","kPa/L/sec","kU/L","kUSP","kat","kcal","kg","kg/L","kg/cm","kg/cm2","kg/m2","km","km/h","ksec","lbf","lm","log EID 50/dose","log10 CCID 50/dose","log10 CFU/g","log10 CFU/mL","log10 IU/mL","log10 TCID 50/dose","log10 copies/mL","lx","m","m/sec","m/sec2","m2","m3","mCi","mCi/L","mCi/kg","mEq","mEq/L","mEq/dL","mEq/day","mEq/g","mEq/kg","mEq/mL","mEq/mmol","mEq/uL","mEq/ug","mIU/L","mIU/mL","mJoule/cm2","mL","mL/animal","mL/animal/day","mL/animal/week","mL/breath","mL/cage","mL/cage/day","mL/cage/week","mL/cm","mL/cm H2O","mL/dL","mL/day","mL/g","mL/g/day","mL/g/h","mL/g/min","mL/h","mL/h/uL of lysat","mL/kg","mL/kg/day","mL/kg/h","mL/kg/min","mL/m2","mL/m2/day","mL/m2/h","mL/m2/min","mL/min","mL/min/1.73m2","mL/min/SSA","mL/min/mmHg","mL/mmHg","mL/mmHg/min/L","mL/sec","mL/sec/1.73m2","mOsm","mOsm/kg","mPa","mU/L","mU/mL","mV","mV*min","mV2/Hz","mcg/dL","mg","mg%","mg/24h","mg/L","mg/L FEU","mg/animal","mg/dL","mg/day","mg/g","mg/g Creatinine","mg/g/day","mg/g/h","mg/g/min","mg/h","mg/kg","mg/kg/day","mg/kg/h","mg/kg/min","mg/m2","mg/m2/day","mg/m2/h","mg/m2/min","mg/mL/min","mg/min","mg/mmol Creatinine","mg/mol","min","mkat","mm","mm/2h","mm/h","mm/min","mm/sec","mm2","mm3","mmHg","mmHg/L/min","mmHg/sec","mmol","mmol FA/mL/h","mmol/L","mmol/day","mmol/g","mmol/kg","mmol/min/kPa","mmol/min/kPa/L","mmol/mol","mmol^2/L^2","mol","mol/L","mol/g","mol/mL","mol/mg","mol/mol","mph","msec","nCi","nL","nU/cL","nU/mL","ng","ng/L","ng/dL","ng/mL","nkat","nkat/L","nm","nmol","nmol BCE/L","nmol BCE/mmol","nmol/L","nmol/dL","nmol/hr/mg protein","nmol/mL/min","nmol/min/mg protein","nsec","Ohm","osm","oz","pL","/min","/sec","pg","pg/L","pg/dL","pg/mL","pkat","pm","pmol","pmol/L","pmol/min/uL of lysat","pmol/punch/hr","pools/day","pools/h","ppb","ppm","ppth","pptr","psec","psi","pt_br","pt_us","rpm","Specific Antibody Binding Capacity","Specific Number of Sites per Cell","scm","sec","Titer","Teaspoon","Tuberculin Unit","Tuberculin Unit/mL","uCi","uCi/L","uCi/kg","uEq","uEq/L","uIU/mL","uL","uL/mL","uOsM","uU/mL","uV","uV*sec","ug","ug/L","ug/animal","ug/dL","ug/day","ug/g/day","ug/g/h","ug/g/min","ug/h","ug/kg","ug/kg/day","ug/kg/h","ug/kg/min","ug/m2","ug/m2/day","ug/m2/h","ug/m2/min","ug/mL","ug/mL/h","ug/min","ugEq","ukat","ukat/L","um","um2","umol","umol/L","umol/L/min","umol/L/sec","umol/day","umol/mg/min","umol/min","usec","v/v","yd","None","Other"],"CRFDES":"Duration Unit","CRFDIC":"UNIT","CRFDOM":"CE","CRFDS":"CE_VAC_ILI","CRFDSLAB":"Influenza Like Illness","CRFOD":9,"CRFVAL":"DAYS","CRFVALUT":null,"CRFVAR":"CEDURU","CRFVAROD":12,"CRFVERS":"V1.0_LIVE_30OCT2019_PW","CRFVISDU":[-1,-1],"CRFVISDY":[-1,-1],"CRFVISID":["40_V04","50_V05"],"CRFVISIT":["Visit 04","Visit 05"],"CRFVISOD":[5,6],"HEIGHT":15.744,"ID":85,"NONCOL":true,"ORDER":39,"PAGENUMBER":11,"WIDTH":66.936,"X":70.866,"Y":121.671},"location":{"x":70.866,"y":121.671,"width":66.936,"height":15.744},"position":{"x":139.80200000000002,"y":119.671,"width":1,"height":15.744}}}},"celbcfyn":{"id":"CELBCFYN","notsub":false,"noncol":false,"label":"Laboratory confirmed?","record":{"86":{"id":86,"raw":{"CDASHDOM":["CE"],"CDASHTYPE":"SANOFI","CDASHVAR":"CELBCFYN","CLASS":"question","CRFCODE":["Y","N"],"CRFCODELAB":["Yes","No"],"CRFDES":"Laboratory confirmed?","CRFDIC":"NY_YN","CRFDOM":"CE","CRFDS":"CE_VAC_ILI","CRFDSLAB":"Influenza Like Illness","CRFOD":9,"CRFVALUT":null,"CRFVAR":"CELBCFYN","CRFVAROD":13,"CRFVERS":"V1.0_LIVE_30OCT2019_PW","CRFVISDU":[-1,-1],"CRFVISDY":[-1,-1],"CRFVISID":["40_V04","50_V05"],"CRFVISIT":["Visit 04","Visit 05"],"CRFVISOD":[5,6],"HEIGHT":15.744,"ID":86,"ORDER":40,"PAGENUMBER":11,"WIDTH":110.856,"X":70.866,"Y":102.671},"location":{"x":70.866,"y":102.671,"width":110.856,"height":15.744},"position":{"x":183.72199999999998,"y":100.671,"width":1,"height":15.744}}}}}}}},"mh_npr_01":{"id":"MH_NPR_01","start":12,"end":null,"notsub":false,"header":{},"page":{"12":{"id":12,"notsub":false,"noncol":false,"position":{"x":72,"y":769,"width":141.07,"height":18},"header":{"mh":{"id":"MH","style":{"color":"#FF0000","background-color":"#BFFFFF"},"element":{"value":"MH(Medical History)","type":"domain","position":{"x":72,"y":769,"width":141.07,"height":18},"identifier":{"form":"mh_npr_01","page":12,"field":"mhspid","record":90,"domain":"mh"},"style":{"color":"#FF0000","background-color":"#BFFFFF"}}}},"field":{"prompt_mhyn":{"id":"PROMPT_MHYN","notsub":false,"noncol":false,"label":"List significant past or current diagnoses, for the following Body Systems: Blood and Lymphatic / Cardiovascular / Gastrointestinal / Hepatobiliary / Neurological / Psychiatric / Renal and urinary / Respiratory / Endocrine and metabolic / Neoplasms benign, malignant and unspecified / Musculoskeletal and connective tissue.","record":{"87":{"id":87,"raw":{"CDASHDOM":["MH"],"CDASHTYPE":"SANOFI","CDASHVAR":"PROMPT_MHYN","CLASS":"question","CRFCODELAB":null,"CRFDES":"List significant past or current diagnoses, for the following Body Systems: Blood and Lymphatic / Cardiovascular / Gastrointestinal / Hepatobiliary / Neurological / Psychiatric / Renal and urinary / Respiratory / Endocrine and metabolic / Neoplasms benign, malignant and unspecified / Musculoskeletal and connective tissue.","CRFDOM":"MH","CRFDS":"MH_NPR_01","CRFDSLAB":"Subject Medical History","CRFOD":15,"CRFVALUT":null,"CRFVAR":"PROMPT_MHYN","CRFVAROD":1,"CRFVERS":"V1.0_LIVE_30OCT2019_PW","CRFVISDU":[-1],"CRFVISDY":[-1],"CRFVISID":["10_V01"],"CRFVISIT":["Visit 01"],"CRFVISOD":[1],"HEIGHT":15.948,"ID":87,"ORDER":1,"PAGENUMBER":12,"WIDTH":468.612,"X":70.866,"Y":666.659},"location":{"x":70.866,"y":666.659,"width":468.612,"height":15.948},"position":{"x":541.4780000000001,"y":664.659,"width":1,"height":15.948}}}},"mhyn":{"id":"MHYN","notsub":false,"noncol":false,"label":"Has the subject experienced any significant past and/or current diseases?","record":{"88":{"id":88,"raw":{"CDASHDOM":["MH"],"CDASHTYPE":"IG","CDASHVAR":"MHYN","CLASS":"question","CRFCODE":["Y","N"],"CRFCODELAB":["Yes","No"],"CRFDES":"Has the subject experienced any significant past and/or current diseases?","CRFDIC":"NY_YN","CRFDOM":"MH","CRFDS":"MH_NPR_01","CRFDSLAB":"Subject Medical History","CRFOD":15,"CRFVALUT":null,"CRFVAR":"MHYN","CRFVAROD":2,"CRFVERS":"V1.0_LIVE_30OCT2019_PW","CRFVISDU":[-1],"CRFVISDY":[-1],"CRFVISID":["10_V01"],"CRFVISIT":["Visit 01"],"CRFVISOD":[1],"HEIGHT":15.744,"ID":88,"ORDER":5,"PAGENUMBER":12,"WIDTH":300.936,"X":70.866,"Y":607.671},"location":{"x":70.866,"y":607.671,"width":300.936,"height":15.744},"position":{"x":373.80199999999996,"y":605.671,"width":1,"height":15.744}}}},"prompt_mhspid":{"id":"PROMPT_MHSPID","notsub":false,"noncol":false,"label":"If yes, complete the following questions.","record":{"89":{"id":89,"raw":{"CDASHDOM":["MH"],"CDASHTYPE":"SANOFI","CDASHVAR":"PROMPT_MHSPID","CLASS":"question","CRFCODELAB":null,"CRFDES":"If yes, complete the following questions.","CRFDOM":"MH","CRFDS":"MH_NPR_01","CRFDSLAB":"Subject Medical History","CRFOD":15,"CRFVALUT":null,"CRFVAR":"PROMPT_MHSPID","CRFVAROD":3,"CRFVERS":"V1.0_LIVE_30OCT2019_PW","CRFVISDU":[-1],"CRFVISDY":[-1],"CRFVISID":["10_V01"],"CRFVISIT":["Visit 01"],"CRFVISOD":[1],"HEIGHT":15.948,"ID":89,"ORDER":7,"PAGENUMBER":12,"WIDTH":192.108,"X":70.866,"Y":572.659},"location":{"x":70.866,"y":572.659,"width":192.108,"height":15.948},"position":{"x":264.974,"y":570.659,"width":1,"height":15.948}}}},"mhspid":{"id":"MHSPID","notsub":false,"noncol":false,"label":"Unique ID","record":{"90":{"id":90,"raw":{"CDASHDOM":["MH"],"CDASHTYPE":"IG","CDASHVAR":"MHSPID","CLASS":"question","CRFCODELAB":null,"CRFDES":"Unique ID","CRFDOM":"MH","CRFDS":"MH_NPR_01","CRFDSLAB":"Subject Medical History","CRFOD":15,"CRFVALUT":null,"CRFVAR":"MHSPID","CRFVAROD":4,"CRFVERS":"V1.0_LIVE_30OCT2019_PW","CRFVISDU":[-1],"CRFVISDY":[-1],"CRFVISID":["10_V01"],"CRFVISIT":["Visit 01"],"CRFVISOD":[1],"HEIGHT":15.744,"ID":90,"ORDER":8,"PAGENUMBER":12,"SDTMDOM":["MH"],"SDTMTYPE":"IG","SDTMVAR":["MHSPID"],"WIDTH":50.964,"X":70.866,"Y":555.671},"location":{"x":70.866,"y":555.671,"width":50.964,"height":15.744},"position":{"x":123.83,"y":553.671,"width":55.044,"height":15.744},"domain":{"mh":{"id":"MH","label":"Medical History","variable":{"mhspid":{"id":"MHSPID","label":"Sponsor-Defined Identifier","element":{"value":"MHSPID","type":"variable","position":{"x":126.83,"y":553.671,"width":54.044,"height":15.744},"identifier":{"form":"mh_npr_01","page":12,"field":"mhspid","record":90,"domain":"mh","variable":"mhspid"},"style":{"color":"#FF0000","background-color":"#BFFFFF"}}}}}}}}},"mhterm":{"id":"MHTERM","notsub":false,"noncol":false,"label":"Medical History Term","record":{"91":{"id":91,"raw":{"CDASHDOM":["MH"],"CDASHTYPE":"IG","CDASHVAR":"MHTERM","CLASS":"question","CRFCODELAB":null,"CRFDES":"Medical History Term","CRFDOM":"MH","CRFDS":"MH_NPR_01","CRFDSLAB":"Subject Medical History","CRFOD":15,"CRFVALUT":null,"CRFVAR":"MHTERM","CRFVAROD":5,"CRFVERS":"V1.0_LIVE_30OCT2019_PW","CRFVISDU":[-1],"CRFVISDY":[-1],"CRFVISID":["10_V01"],"CRFVISIT":["Visit 01"],"CRFVISOD":[1],"HEIGHT":15.744,"ID":91,"ORDER":9,"PAGENUMBER":12,"SDTMDOM":["MH"],"SDTMTYPE":"IG","SDTMVAR":["MHTERM"],"WIDTH":107.196,"X":70.866,"Y":538.671},"location":{"x":70.866,"y":538.671,"width":107.196,"height":15.744},"position":{"x":180.062,"y":536.671,"width":61.394,"height":15.744},"domain":{"mh":{"id":"MH","label":"Medical History","variable":{"mhterm":{"id":"MHTERM","label":"Reported Term for the Medical History","element":{"value":"MHTERM","type":"variable","position":{"x":183.062,"y":536.671,"width":60.394,"height":15.744},"identifier":{"form":"mh_npr_01","page":12,"field":"mhterm","record":91,"domain":"mh","variable":"mhterm"},"style":{"color":"#FF0000","background-color":"#BFFFFF"}}}}}}}}},"mhongo":{"id":"MHONGO","notsub":false,"noncol":false,"label":"Ongoing at Inclusion","record":{"92":{"id":92,"raw":{"CDASHDOM":["MH"],"CDASHTYPE":"IG","CDASHVAR":"MHONGO","CLASS":"question","CRFCODELAB":null,"CRFDES":"Ongoing at Inclusion","CRFDOM":"MH","CRFDS":"MH_NPR_01","CRFDSLAB":"Subject Medical History","CRFOD":15,"CRFVALUT":null,"CRFVAR":"MHONGO","CRFVAROD":6,"CRFVERS":"V1.0_LIVE_30OCT2019_PW","CRFVISDU":[-1],"CRFVISDY":[-1],"CRFVISID":["10_V01"],"CRFVISIT":["Visit 01"],"CRFVISOD":[1],"HEIGHT":15.744,"ID":92,"ORDER":10,"PAGENUMBER":12,"SDTMDOM":["MH"],"SDTMTYPE":"IG","SDTMVAR":["MHENRTPT"],"WIDTH":101.256,"X":70.866,"Y":521.671},"location":{"x":70.866,"y":521.672,"width":101.256,"height":15.744},"position":{"x":174.122,"y":519.672,"width":76.557,"height":15.744},"domain":{"mh":{"id":"MH","label":"Medical History","variable":{"mhenrtpt":{"id":"MHENRTPT","label":"End Relative to Reference Time Point","element":{"value":"MHENRTPT","type":"variable","position":{"x":177.122,"y":519.672,"width":75.557,"height":15.744},"identifier":{"form":"mh_npr_01","page":12,"field":"mhongo","record":92,"domain":"mh","variable":"mhenrtpt"},"style":{"color":"#FF0000","background-color":"#BFFFFF"}}}}}}}}}}}}},"cm_vac_all":{"id":"CM_VAC_ALL","start":13,"end":null,"notsub":false,"header":{},"page":{"13":{"id":13,"notsub":false,"noncol":false,"position":{"x":72,"y":769,"width":244.03700000000003,"height":18},"header":{"cm":{"id":"CM","style":{"color":"#FF0000","background-color":"#BFFFFF","bolder-style":"dash"},"element":{"value":"CM(Concomitant/Prior Medications)","type":"domain","position":{"x":72,"y":769,"width":244.037,"height":18},"identifier":{"form":"cm_vac_all","page":13,"field":"cmcat","record":93,"domain":"cm"},"style":{"color":"#FF0000","background-color":"#BFFFFF","bolder-style":"dash"}}}},"field":{"cmcat":{"id":"CMCAT","notsub":false,"noncol":false,"label":"Category for Medication","record":{"93":{"id":93,"raw":{"CDASHDOM":["CM"],"CDASHTYPE":"IG","CDASHVAR":"CMCAT","CLASS":"question","CRFCODE":["ANTI-CANCER THERAPY","ANTI-HYPERGLYCEMIC THERAPY","ANTIBIOTIC","ASTHMA CONTROLLER","ASTHMA RELIEVER","BASAL INSULIN","HISTORY OF ANTI-HYPERGLYCEMIC THERAPY","HISTORY OF LIPID MODIFYING THERAPY","HISTORY OF VACCINATION","HYPOGLYCEMIC TREATMENT","LIPID LOWERING THERAPY","LIPID MODIFYING THERAPY EXCLUDING STATIN","MEDICATION","NON-MEDICATION THERAPY","RESCUE THERAPY","SAE COMPLEMENTARY INFORMATION","STATIN THERAPY","SYSTEMIC CORTICOID THERAPY","OTHER","MEDICATIONS IMPACTING OR THAT MAY HAVE AN IMPACT ON THE EVALUATION OF THE SAFETY","MEDICATIONS IMPACTING OR THAT MAY HAVE AN IMPACT ON THE IMMUNE RESPONSE","MEDICATIONS IMPACTING OR THAT MAY HAVE AN IMPACT ON BOTH THE SAFETY AND THE IMMUNE RESPONSE"],"CRFCODELAB":["Anti-Cancer Therapy","Anti-Hyperglycemic Therapy","Antibiotic","Asthma Controller","Asthma Reliever","Basal Insulin","History of Anti-Hyperglycemic Therapy","History of Lipid Modifying Therapy","History of Vaccination","Hypoglycemic Treatment","Lipid Lowering Therapy","Lipid Modifying Therapy Excluding Statin","Medication","Non Medication Therapy","Rescue Therapy","SAE Complementary Information","Statin Therapy","Systemic Corticoid Therapy","Other","Category 1","Category 2","Category 3"],"CRFDES":"Category for Medication","CRFDIC":"CMCAT","CRFDOM":"CM","CRFDS":"CM_VAC_ALL","CRFDSLAB":"Influenza Vaccination History","CRFOD":16,"CRFVAL":"HISTORY OF VACCINATION","CRFVALUT":null,"CRFVAR":"CMCAT","CRFVAROD":1,"CRFVERS":"V1.0_LIVE_30OCT2019_PW","CRFVISDU":[-1],"CRFVISDY":[-1],"CRFVISID":["10_V01"],"CRFVISIT":["Visit 01"],"CRFVISOD":[1],"HEIGHT":15.744,"ID":93,"NONCOL":true,"ORDER":1,"PAGENUMBER":13,"SDTMDOM":["CM"],"SDTMTYPE":"IG","SDTMVAR":["CMCAT"],"WIDTH":118.524,"X":70.866,"Y":666.671},"location":{"x":70.866,"y":666.671,"width":118.524,"height":15.744},"position":{"x":191.39,"y":664.671,"width":50.637,"height":15.744},"domain":{"cm":{"id":"CM","label":"Concomitant/Prior Medications","variable":{"cmcat":{"id":"CMCAT","label":"Category for Medication","element":{"value":"CMCAT","type":"variable","position":{"x":194.39,"y":664.671,"width":49.637,"height":15.744},"identifier":{"form":"cm_vac_all","page":13,"field":"cmcat","record":93,"domain":"cm","variable":"cmcat"},"style":{"color":"#FF0000","background-color":"#BFFFFF","bolder-style":"dash"}}}}}}}}},"prompt_cmflh_01":{"id":"PROMPT_CMFLH_01","notsub":false,"noncol":false,"label":"Record information related only to \\Influenza /Japanese Encephalitis/Yellow Fever/Diphtheria/Tetanus/Pneumococcal/Meningococcal/Licensed Dengue \\vaccinations. Other vaccinations should be recorded in the Reportable Medications page.Use exact spelling.","record":{"94":{"id":94,"raw":{"CDASHDOM":["CM"],"CDASHTYPE":"SANOFI","CDASHVAR":"PROMPT_CMFLH_01","CLASS":"question","CRFCODELAB":null,"CRFDES":"Record information related only to \\Influenza /Japanese Encephalitis/Yellow Fever/Diphtheria/Tetanus/Pneumococcal/Meningococcal/Licensed Dengue \\vaccinations. Other vaccinations should be recorded in the Reportable Medications page.Use exact spelling.","CRFDOM":"CM","CRFDS":"CM_VAC_ALL","CRFDSLAB":"Influenza Vaccination History","CRFOD":16,"CRFVALUT":null,"CRFVAR":"PROMPT_CMFLH_01","CRFVAROD":2,"CRFVERS":"V1.0_LIVE_30OCT2019_PW","CRFVISDU":[-1],"CRFVISDY":[-1],"CRFVISID":["10_V01"],"CRFVISIT":["Visit 01"],"CRFVISOD":[1],"HEIGHT":15.948,"ID":94,"ORDER":28,"PAGENUMBER":13,"WIDTH":367.92,"X":70.866,"Y":263.659},"location":{"x":70.866,"y":263.659,"width":367.92,"height":15.948},"position":{"x":440.786,"y":261.659,"width":1,"height":15.948}}}},"cmscat":{"id":"CMSCAT","notsub":false,"noncol":false,"label":"Vaccination History Type","record":{"95":{"id":95,"raw":{"CDASHDOM":["CM"],"CDASHTYPE":"IG","CDASHVAR":"CMSCAT","CLASS":"question","CRFCODE":["ANTIBIOTIC","ANTIBIOTICS","DIPHTHERIA VACCINE","HIGHLIGHTED DOSE","JAPANESE ENCEPHALITIS VACCINE","LICENSED DENGUE VACCINE","MENINGOCOCCAL VACCINE","NON-STUDY VACCINES","PNEUMOCOCCAL VACCINE","POST STUDY TREATMENT","PRIOR STUDY TREATMENT","SEASONAL INFLUENZA VACCINE","TETANUS VACCINE","YELLOW FEVER VACCINE"],"CRFCODELAB":["Antibiotic","Antibiotics","Diphtheria Vaccine","Highlighted Dose","Japanese Encephalitis Vaccine","Licensed Dengue Vaccine","Meningococcal Vaccine","Non-Study Vaccines","Pneumococcal Vaccine","Post Study Treatment(s)","Prior Study Treatment","Seasonal Influenza Vaccine","Tetanus Vaccine","Yellow Fever Vaccine"],"CRFDES":"Vaccination History Type","CRFDIC":"CMSCAT","CRFDOM":"CM","CRFDS":"CM_VAC_ALL","CRFDSLAB":"Influenza Vaccination History","CRFOD":16,"CRFVAL":"SEASONAL INFLUENZA VACCINE","CRFVALUT":null,"CRFVAR":"CMSCAT","CRFVAROD":3,"CRFVERS":"V1.0_LIVE_30OCT2019_PW","CRFVISDU":[-1],"CRFVISDY":[-1],"CRFVISID":["10_V01"],"CRFVISIT":["Visit 01"],"CRFVISOD":[1],"HEIGHT":15.744,"ID":95,"NONCOL":true,"ORDER":32,"PAGENUMBER":13,"SDTMDOM":["CM"],"SDTMTYPE":"IG","SDTMVAR":["CMSCAT"],"WIDTH":124.512,"X":70.866,"Y":201.671},"location":{"x":70.866,"y":201.671,"width":124.512,"height":15.744},"position":{"x":197.378,"y":199.671,"width":59.321,"height":15.744},"domain":{"cm":{"id":"CM","label":"Concomitant/Prior Medications","variable":{"cmscat":{"id":"CMSCAT","label":"Subcategory for Medication","element":{"value":"CMSCAT","type":"variable","position":{"x":200.378,"y":199.671,"width":58.321,"height":15.744},"identifier":{"form":"cm_vac_all","page":13,"field":"cmscat","record":95,"domain":"cm","variable":"cmscat"},"style":{"color":"#FF0000","background-color":"#BFFFFF","bolder-style":"dash"}}}}}}}}}}},"14":{"id":14,"notsub":false,"noncol":false,"position":{"x":72,"y":769,"width":244.03700000000003,"height":18},"header":{"cm":{"id":"CM","style":{"color":"#FF0000","background-color":"#BFFFFF","bolder-style":"dash"},"element":{"value":"CM(Concomitant/Prior Medications)","type":"domain","position":{"x":72,"y":769,"width":244.037,"height":18},"identifier":{"form":"cm_vac_all","page":14,"field":"cmpresp","record":96,"domain":"cm"},"style":{"color":"#FF0000","background-color":"#BFFFFF","bolder-style":"dash"}}}},"field":{"cmpresp":{"id":"CMPRESP","notsub":false,"noncol":false,"label":"Pre-Specified?","record":{"96":{"id":96,"raw":{"CDASHDOM":["CM"],"CDASHTYPE":"SANOFI","CDASHVAR":"CMPRESP","CLASS":"question","CRFCODE":["Y","N"],"CRFCODELAB":["Yes","No"],"CRFDES":"Pre-Specified?","CRFDIC":"NY_YN","CRFDOM":"CM","CRFDS":"CM_VAC_ALL","CRFDSLAB":"Influenza Vaccination History","CRFOD":16,"CRFVAL":"Y","CRFVALUT":null,"CRFVAR":"CMPRESP","CRFVAROD":4,"CRFVERS":"V1.0_LIVE_30OCT2019_PW","CRFVISDU":[-1],"CRFVISDY":[-1],"CRFVISID":["10_V01"],"CRFVISIT":["Visit 01"],"CRFVISOD":[1],"HEIGHT":15.744,"ID":96,"NONCOL":true,"ORDER":1,"PAGENUMBER":14,"SDTMDOM":["CM"],"SDTMTYPE":"SANOFI","SDTMVAR":["CMPRESP"],"WIDTH":70.56,"X":70.866,"Y":583.671},"location":{"x":70.866,"y":583.671,"width":70.56,"height":15.744},"position":{"x":143.426,"y":581.671,"width":68.781,"height":15.744},"domain":{"cm":{"id":"CM","label":"Concomitant/Prior Medications","variable":{"cmpresp":{"id":"CMPRESP","label":"CM Pre-specified","element":{"value":"CMPRESP","type":"variable","position":{"x":146.426,"y":581.671,"width":67.781,"height":15.744},"identifier":{"form":"cm_vac_all","page":14,"field":"cmpresp","record":96,"domain":"cm","variable":"cmpresp"},"style":{"color":"#FF0000","background-color":"#BFFFFF","bolder-style":"dash"}}}}}}},"101":{"id":101,"raw":{"CDASHDOM":["CM"],"CDASHTYPE":"SANOFI","CDASHVAR":"CMPRESP","CLASS":"question","CRFCODE":["Y","N"],"CRFCODELAB":["Yes","No"],"CRFDES":"Pre-Specified?","CRFDIC":"NY_YN","CRFDOM":"CM","CRFDS":"CM_VAC_ALL","CRFDSLAB":"Influenza Vaccination History","CRFOD":16,"CRFVAL":"Y","CRFVALUT":null,"CRFVAR":"CMPRESP","CRFVAROD":4,"CRFVERS":"V1.0_LIVE_30OCT2019_PW","CRFVISDU":[-1],"CRFVISDY":[-1],"CRFVISID":["10_V01"],"CRFVISIT":["Visit 01"],"CRFVISOD":[1],"HEIGHT":15.744,"ID":101,"NONCOL":true,"ORDER":6,"PAGENUMBER":14,"SDTMDOM":["CM"],"SDTMTYPE":"SANOFI","SDTMVAR":["CMPRESP"],"WIDTH":70.56,"X":70.866,"Y":205.671},"location":{"x":70.866,"y":205.671,"width":70.56,"height":15.744},"position":{"x":143.426,"y":203.671,"width":68.781,"height":15.744},"domain":{"cm":{"id":"CM","label":"Concomitant/Prior Medications","variable":{"cmpresp":{"id":"CMPRESP","label":"CM Pre-specified","element":{"value":"CMPRESP","type":"variable","position":{"x":146.426,"y":203.671,"width":67.781,"height":15.744},"identifier":{"form":"cm_vac_all","page":14,"field":"cmpresp","record":101,"domain":"cm","variable":"cmpresp"},"style":{"color":"#FF0000","background-color":"#BFFFFF","bolder-style":"dash"}}}}}}}}},"cmterm":{"id":"CMTERM","notsub":false,"noncol":false,"label":"Year of Vaccination","record":{"97":{"id":97,"raw":{"CDASHDOM":["CM"],"CDASHTYPE":"SANOFI","CDASHVAR":"CMTERM","CLASS":"question","CRFCODELAB":null,"CRFDES":"Year of Vaccination","CRFDOM":"CM","CRFDS":"CM_VAC_ALL","CRFDSLAB":"Influenza Vaccination History","CRFOD":16,"CRFVAL":"SEASONAL INFLUENZA VACCINATION SINCE 01SEP2019","CRFVALUT":null,"CRFVAR":"CMTERM","CRFVAROD":5,"CRFVERS":"V1.0_LIVE_30OCT2019_PW","CRFVISDU":[-1],"CRFVISDY":[-1],"CRFVISID":["10_V01"],"CRFVISIT":["Visit 01"],"CRFVISOD":[1],"HEIGHT":15.744,"ID":97,"NONCOL":true,"ORDER":2,"PAGENUMBER":14,"WIDTH":97.188,"X":70.866,"Y":548.671},"location":{"x":70.866,"y":548.671,"width":97.188,"height":15.744},"position":{"x":170.054,"y":546.671,"width":1,"height":15.744}},"102":{"id":102,"raw":{"CDASHDOM":["CM"],"CDASHTYPE":"SANOFI","CDASHVAR":"CMTERM","CLASS":"question","CRFCODELAB":null,"CRFDES":"Year of Vaccination","CRFDOM":"CM","CRFDS":"CM_VAC_ALL","CRFDSLAB":"Influenza Vaccination History","CRFOD":16,"CRFVAL":"SEASONAL INFLUENZA VACCINATION BETWEEN 01SEP2018 AND 31AUG2019","CRFVALUT":null,"CRFVAR":"CMTERM","CRFVAROD":5,"CRFVERS":"V1.0_LIVE_30OCT2019_PW","CRFVISDU":[-1],"CRFVISDY":[-1],"CRFVISID":["10_V01"],"CRFVISIT":["Visit 01"],"CRFVISOD":[1],"HEIGHT":15.744,"ID":102,"NONCOL":true,"ORDER":7,"PAGENUMBER":14,"WIDTH":97.188,"X":70.866,"Y":170.671},"location":{"x":70.866,"y":170.671,"width":97.188,"height":15.744},"position":{"x":170.054,"y":168.671,"width":1,"height":15.744}}}},"cmoccur":{"id":"CMOCCUR","notsub":false,"noncol":false,"label":"Vaccination received? (If Yes, provide Details)","record":{"98":{"id":98,"raw":{"CDASHDOM":["CM"],"CDASHTYPE":"IG","CDASHVAR":"CMOCCUR","CLASS":"question","CRFCODE":["Y","N","U"],"CRFCODELAB":["Yes","No","Unknown"],"CRFDES":"Vaccination received? (If Yes, provide Details)","CRFDIC":"NY_YNU","CRFDOM":"CM","CRFDS":"CM_VAC_ALL","CRFDSLAB":"Influenza Vaccination History","CRFOD":16,"CRFVALUT":null,"CRFVAR":"CMOCCUR","CRFVAROD":6,"CRFVERS":"V1.0_LIVE_30OCT2019_PW","CRFVISDU":[-1],"CRFVISDY":[-1],"CRFVISID":["10_V01"],"CRFVISIT":["Visit 01"],"CRFVISOD":[1],"HEIGHT":15.948,"ID":98,"ORDER":3,"PAGENUMBER":14,"SDTMDOM":["CM"],"SDTMTYPE":"IG","SDTMVAR":["CMOCCUR","CMSTAT"],"WIDTH":225.012,"X":70.866,"Y":503.671},"location":{"x":70.866,"y":503.671,"width":225.012,"height":15.948},"position":{"x":297.878,"y":501.671,"width":129.046,"height":15.948},"domain":{"cm":{"id":"CM","label":"Concomitant/Prior Medications","variable":{"cmoccur":{"id":"CMOCCUR","label":"CM Occurrence","element":{"value":"CMOCCUR","type":"variable","position":{"x":300.878,"y":501.671,"width":71.151,"height":15.948},"identifier":{"form":"cm_vac_all","page":14,"field":"cmoccur","record":98,"domain":"cm","variable":"cmoccur"},"style":{"color":"#FF0000","background-color":"#BFFFFF","bolder-style":"dash"}}},"cmstat":{"id":"CMSTAT","label":"Completion Status","element":{"value":"CMSTAT","type":"variable","position":{"x":372.029,"y":501.671,"width":56.895,"height":15.948},"identifier":{"form":"cm_vac_all","page":14,"field":"cmoccur","record":98,"domain":"cm","variable":"cmstat"},"style":{"color":"#FF0000","background-color":"#BFFFFF","bolder-style":"dash"}}}}}}},"103":{"id":103,"raw":{"CDASHDOM":["CM"],"CDASHTYPE":"IG","CDASHVAR":"CMOCCUR","CLASS":"question","CRFCODE":["Y","N","U"],"CRFCODELAB":["Yes","No","Unknown"],"CRFDES":"Vaccination received? (If Yes, provide Details)","CRFDIC":"NY_YNU","CRFDOM":"CM","CRFDS":"CM_VAC_ALL","CRFDSLAB":"Influenza Vaccination History","CRFOD":16,"CRFVALUT":null,"CRFVAR":"CMOCCUR","CRFVAROD":6,"CRFVERS":"V1.0_LIVE_30OCT2019_PW","CRFVISDU":[-1],"CRFVISDY":[-1],"CRFVISID":["10_V01"],"CRFVISIT":["Visit 01"],"CRFVISOD":[1],"HEIGHT":15.948,"ID":103,"ORDER":8,"PAGENUMBER":14,"SDTMDOM":["CM"],"SDTMTYPE":"IG","SDTMVAR":["CMOCCUR","CMSTAT"],"WIDTH":225.012,"X":70.866,"Y":125.671},"location":{"x":70.866,"y":125.671,"width":225.012,"height":15.948},"position":{"x":297.878,"y":123.671,"width":129.046,"height":15.948},"domain":{"cm":{"id":"CM","label":"Concomitant/Prior Medications","variable":{"cmoccur":{"id":"CMOCCUR","label":"CM Occurrence","element":{"value":"CMOCCUR","type":"variable","position":{"x":300.878,"y":123.671,"width":71.151,"height":15.948},"identifier":{"form":"cm_vac_all","page":14,"field":"cmoccur","record":103,"domain":"cm","variable":"cmoccur"},"style":{"color":"#FF0000","background-color":"#BFFFFF","bolder-style":"dash"}}},"cmstat":{"id":"CMSTAT","label":"Completion Status","element":{"value":"CMSTAT","type":"variable","position":{"x":372.029,"y":123.671,"width":56.895,"height":15.948},"identifier":{"form":"cm_vac_all","page":14,"field":"cmoccur","record":103,"domain":"cm","variable":"cmstat"},"style":{"color":"#FF0000","background-color":"#BFFFFF","bolder-style":"dash"}}}}}}}}},"cmstdat":{"id":"CMSTDAT","notsub":false,"noncol":false,"label":"Date of Last Administration","record":{"99":{"id":99,"raw":{"CDASHDOM":["CM"],"CDASHTYPE":"IG","CDASHVAR":"CMSTDAT","CLASS":"question","CRFCODELAB":null,"CRFDES":"Date of Last Administration","CRFDOM":"CM","CRFDS":"CM_VAC_ALL","CRFDSLAB":"Influenza Vaccination History","CRFOD":16,"CRFVALUT":null,"CRFVAR":"CMSTDAT","CRFVAROD":7,"CRFVERS":"V1.0_LIVE_30OCT2019_PW","CRFVISDU":[-1],"CRFVISDY":[-1],"CRFVISID":["10_V01"],"CRFVISIT":["Visit 01"],"CRFVISOD":[1],"HEIGHT":15.744,"ID":99,"ORDER":4,"PAGENUMBER":14,"SDTMDOM":["CM"],"SDTMTYPE":"IG","SDTMVAR":["CMSTDTC"],"WIDTH":134.832,"X":70.866,"Y":452.671},"location":{"x":70.866,"y":452.671,"width":134.832,"height":15.744},"position":{"x":207.69799999999998,"y":450.671,"width":67.874,"height":15.744},"domain":{"cm":{"id":"CM","label":"Concomitant/Prior Medications","variable":{"cmstdtc":{"id":"CMSTDTC","label":"Start Date/Time of Medication","element":{"value":"CMSTDTC","type":"variable","position":{"x":210.69799999999998,"y":450.671,"width":66.874,"height":15.744},"identifier":{"form":"cm_vac_all","page":14,"field":"cmstdat","record":99,"domain":"cm","variable":"cmstdtc"},"style":{"color":"#FF0000","background-color":"#BFFFFF","bolder-style":"dash"}}}}}}},"104":{"id":104,"raw":{"CDASHDOM":["CM"],"CDASHTYPE":"IG","CDASHVAR":"CMSTDAT","CLASS":"question","CRFCODELAB":null,"CRFDES":"Date of Last Administration","CRFDOM":"CM","CRFDS":"CM_VAC_ALL","CRFDSLAB":"Influenza Vaccination History","CRFOD":16,"CRFVALUT":null,"CRFVAR":"CMSTDAT","CRFVAROD":7,"CRFVERS":"V1.0_LIVE_30OCT2019_PW","CRFVISDU":[-1],"CRFVISDY":[-1],"CRFVISID":["10_V01"],"CRFVISIT":["Visit 01"],"CRFVISOD":[1],"HEIGHT":15.744,"ID":104,"ORDER":9,"PAGENUMBER":14,"SDTMDOM":["CM"],"SDTMTYPE":"IG","SDTMVAR":["CMSTDTC"],"WIDTH":134.832,"X":70.866,"Y":74.671},"location":{"x":70.866,"y":74.671,"width":134.832,"height":15.744},"position":{"x":207.69799999999998,"y":72.671,"width":67.874,"height":15.744},"domain":{"cm":{"id":"CM","label":"Concomitant/Prior Medications","variable":{"cmstdtc":{"id":"CMSTDTC","label":"Start Date/Time of Medication","element":{"value":"CMSTDTC","type":"variable","position":{"x":210.69799999999998,"y":72.671,"width":66.874,"height":15.744},"identifier":{"form":"cm_vac_all","page":14,"field":"cmstdat","record":104,"domain":"cm","variable":"cmstdtc"},"style":{"color":"#FF0000","background-color":"#BFFFFF","bolder-style":"dash"}}}}}}}}},"cmscat":{"id":"CMSCAT","notsub":false,"noncol":false,"label":"Vaccination History Type","record":{"100":{"id":100,"raw":{"CDASHDOM":["CM"],"CDASHTYPE":"IG","CDASHVAR":"CMSCAT","CLASS":"question","CRFCODE":["ANTIBIOTIC","ANTIBIOTICS","DIPHTHERIA VACCINE","HIGHLIGHTED DOSE","JAPANESE ENCEPHALITIS VACCINE","LICENSED DENGUE VACCINE","MENINGOCOCCAL VACCINE","NON-STUDY VACCINES","PNEUMOCOCCAL VACCINE","POST STUDY TREATMENT","PRIOR STUDY TREATMENT","SEASONAL INFLUENZA VACCINE","TETANUS VACCINE","YELLOW FEVER VACCINE"],"CRFCODELAB":["Antibiotic","Antibiotics","Diphtheria Vaccine","Highlighted Dose","Japanese Encephalitis Vaccine","Licensed Dengue Vaccine","Meningococcal Vaccine","Non-Study Vaccines","Pneumococcal Vaccine","Post Study Treatment(s)","Prior Study Treatment","Seasonal Influenza Vaccine","Tetanus Vaccine","Yellow Fever Vaccine"],"CRFDES":"Vaccination History Type","CRFDIC":"CMSCAT","CRFDOM":"CM","CRFDS":"CM_VAC_ALL","CRFDSLAB":"Influenza Vaccination History","CRFOD":16,"CRFVAL":"SEASONAL INFLUENZA VACCINE","CRFVALUT":null,"CRFVAR":"CMSCAT","CRFVAROD":3,"CRFVERS":"V1.0_LIVE_30OCT2019_PW","CRFVISDU":[-1],"CRFVISDY":[-1],"CRFVISID":["10_V01"],"CRFVISIT":["Visit 01"],"CRFVISOD":[1],"HEIGHT":15.744,"ID":100,"NONCOL":true,"ORDER":5,"PAGENUMBER":14,"SDTMDOM":["CM"],"SDTMTYPE":"IG","SDTMVAR":["CMSCAT"],"WIDTH":124.512,"X":70.866,"Y":432.671},"location":{"x":70.866,"y":432.671,"width":124.512,"height":15.744},"position":{"x":197.378,"y":430.671,"width":59.321,"height":15.744},"domain":{"cm":{"id":"CM","label":"Concomitant/Prior Medications","variable":{"cmscat":{"id":"CMSCAT","label":"Subcategory for Medication","element":{"value":"CMSCAT","type":"variable","position":{"x":200.378,"y":430.671,"width":58.321,"height":15.744},"identifier":{"form":"cm_vac_all","page":14,"field":"cmscat","record":100,"domain":"cm","variable":"cmscat"},"style":{"color":"#FF0000","background-color":"#BFFFFF","bolder-style":"dash"}}}}}}}}}}},"15":{"id":15,"notsub":false,"noncol":false,"position":{"x":72,"y":769,"width":244.03700000000003,"height":18},"header":{"cm":{"id":"CM","style":{"color":"#FF0000","background-color":"#BFFFFF","bolder-style":"dash"},"element":{"value":"CM(Concomitant/Prior Medications)","type":"domain","position":{"x":72,"y":769,"width":244.037,"height":18},"identifier":{"form":"cm_vac_all","page":15,"field":"cmscat","record":105,"domain":"cm"},"style":{"color":"#FF0000","background-color":"#BFFFFF","bolder-style":"dash"}}}},"field":{"cmscat":{"id":"CMSCAT","notsub":false,"noncol":false,"label":"Vaccination History Type","record":{"105":{"id":105,"raw":{"CDASHDOM":["CM"],"CDASHTYPE":"IG","CDASHVAR":"CMSCAT","CLASS":"question","CRFCODE":["ANTIBIOTIC","ANTIBIOTICS","DIPHTHERIA VACCINE","HIGHLIGHTED DOSE","JAPANESE ENCEPHALITIS VACCINE","LICENSED DENGUE VACCINE","MENINGOCOCCAL VACCINE","NON-STUDY VACCINES","PNEUMOCOCCAL VACCINE","POST STUDY TREATMENT","PRIOR STUDY TREATMENT","SEASONAL INFLUENZA VACCINE","TETANUS VACCINE","YELLOW FEVER VACCINE"],"CRFCODELAB":["Antibiotic","Antibiotics","Diphtheria Vaccine","Highlighted Dose","Japanese Encephalitis Vaccine","Licensed Dengue Vaccine","Meningococcal Vaccine","Non-Study Vaccines","Pneumococcal Vaccine","Post Study Treatment(s)","Prior Study Treatment","Seasonal Influenza Vaccine","Tetanus Vaccine","Yellow Fever Vaccine"],"CRFDES":"Vaccination History Type","CRFDIC":"CMSCAT","CRFDOM":"CM","CRFDS":"CM_VAC_ALL","CRFDSLAB":"Influenza Vaccination History","CRFOD":16,"CRFVAL":"SEASONAL INFLUENZA VACCINE","CRFVALUT":null,"CRFVAR":"CMSCAT","CRFVAROD":3,"CRFVERS":"V1.0_LIVE_30OCT2019_PW","CRFVISDU":[-1],"CRFVISDY":[-1],"CRFVISID":["10_V01"],"CRFVISIT":["Visit 01"],"CRFVISOD":[1],"HEIGHT":15.744,"ID":105,"NONCOL":true,"ORDER":1,"PAGENUMBER":15,"SDTMDOM":["CM"],"SDTMTYPE":"IG","SDTMVAR":["CMSCAT"],"WIDTH":124.512,"X":70.866,"Y":666.671},"location":{"x":70.866,"y":666.671,"width":124.512,"height":15.744},"position":{"x":197.378,"y":664.671,"width":59.321,"height":15.744},"domain":{"cm":{"id":"CM","label":"Concomitant/Prior Medications","variable":{"cmscat":{"id":"CMSCAT","label":"Subcategory for Medication","element":{"value":"CMSCAT","type":"variable","position":{"x":200.378,"y":664.671,"width":58.321,"height":15.744},"identifier":{"form":"cm_vac_all","page":15,"field":"cmscat","record":105,"domain":"cm","variable":"cmscat"},"style":{"color":"#FF0000","background-color":"#BFFFFF","bolder-style":"dash"}}}}}}},"110":{"id":110,"raw":{"CDASHDOM":["CM"],"CDASHTYPE":"IG","CDASHVAR":"CMSCAT","CLASS":"question","CRFCODE":["ANTIBIOTIC","ANTIBIOTICS","DIPHTHERIA VACCINE","HIGHLIGHTED DOSE","JAPANESE ENCEPHALITIS VACCINE","LICENSED DENGUE VACCINE","MENINGOCOCCAL VACCINE","NON-STUDY VACCINES","PNEUMOCOCCAL VACCINE","POST STUDY TREATMENT","PRIOR STUDY TREATMENT","SEASONAL INFLUENZA VACCINE","TETANUS VACCINE","YELLOW FEVER VACCINE"],"CRFCODELAB":["Antibiotic","Antibiotics","Diphtheria Vaccine","Highlighted Dose","Japanese Encephalitis Vaccine","Licensed Dengue Vaccine","Meningococcal Vaccine","Non-Study Vaccines","Pneumococcal Vaccine","Post Study Treatment(s)","Prior Study Treatment","Seasonal Influenza Vaccine","Tetanus Vaccine","Yellow Fever Vaccine"],"CRFDES":"Vaccination History Type","CRFDIC":"CMSCAT","CRFDOM":"CM","CRFDS":"CM_VAC_ALL","CRFDSLAB":"Influenza Vaccination History","CRFOD":16,"CRFVAL":"SEASONAL INFLUENZA VACCINE","CRFVALUT":null,"CRFVAR":"CMSCAT","CRFVAROD":3,"CRFVERS":"V1.0_LIVE_30OCT2019_PW","CRFVISDU":[-1],"CRFVISDY":[-1],"CRFVISID":["10_V01"],"CRFVISIT":["Visit 01"],"CRFVISOD":[1],"HEIGHT":15.744,"ID":110,"NONCOL":true,"ORDER":6,"PAGENUMBER":15,"SDTMDOM":["CM"],"SDTMTYPE":"IG","SDTMVAR":["CMSCAT"],"WIDTH":124.512,"X":70.866,"Y":288.671},"location":{"x":70.866,"y":288.671,"width":124.512,"height":15.744},"position":{"x":197.378,"y":286.671,"width":59.321,"height":15.744},"domain":{"cm":{"id":"CM","label":"Concomitant/Prior Medications","variable":{"cmscat":{"id":"CMSCAT","label":"Subcategory for Medication","element":{"value":"CMSCAT","type":"variable","position":{"x":200.378,"y":286.671,"width":58.321,"height":15.744},"identifier":{"form":"cm_vac_all","page":15,"field":"cmscat","record":110,"domain":"cm","variable":"cmscat"},"style":{"color":"#FF0000","background-color":"#BFFFFF","bolder-style":"dash"}}}}}}}}},"cmpresp":{"id":"CMPRESP","notsub":false,"noncol":false,"label":"Pre-Specified?","record":{"106":{"id":106,"raw":{"CDASHDOM":["CM"],"CDASHTYPE":"SANOFI","CDASHVAR":"CMPRESP","CLASS":"question","CRFCODE":["Y","N"],"CRFCODELAB":["Yes","No"],"CRFDES":"Pre-Specified?","CRFDIC":"NY_YN","CRFDOM":"CM","CRFDS":"CM_VAC_ALL","CRFDSLAB":"Influenza Vaccination History","CRFOD":16,"CRFVAL":"Y","CRFVALUT":null,"CRFVAR":"CMPRESP","CRFVAROD":4,"CRFVERS":"V1.0_LIVE_30OCT2019_PW","CRFVISDU":[-1],"CRFVISDY":[-1],"CRFVISID":["10_V01"],"CRFVISIT":["Visit 01"],"CRFVISOD":[1],"HEIGHT":15.744,"ID":106,"NONCOL":true,"ORDER":2,"PAGENUMBER":15,"SDTMDOM":["CM"],"SDTMTYPE":"SANOFI","SDTMVAR":["CMPRESP"],"WIDTH":70.56,"X":70.866,"Y":439.671},"location":{"x":70.866,"y":439.671,"width":70.56,"height":15.744},"position":{"x":143.426,"y":437.671,"width":68.781,"height":15.744},"domain":{"cm":{"id":"CM","label":"Concomitant/Prior Medications","variable":{"cmpresp":{"id":"CMPRESP","label":"CM Pre-specified","element":{"value":"CMPRESP","type":"variable","position":{"x":146.426,"y":437.671,"width":67.781,"height":15.744},"identifier":{"form":"cm_vac_all","page":15,"field":"cmpresp","record":106,"domain":"cm","variable":"cmpresp"},"style":{"color":"#FF0000","background-color":"#BFFFFF","bolder-style":"dash"}}}}}}}}},"cmterm":{"id":"CMTERM","notsub":false,"noncol":false,"label":"Year of Vaccination","record":{"107":{"id":107,"raw":{"CDASHDOM":["CM"],"CDASHTYPE":"SANOFI","CDASHVAR":"CMTERM","CLASS":"question","CRFCODELAB":null,"CRFDES":"Year of Vaccination","CRFDOM":"CM","CRFDS":"CM_VAC_ALL","CRFDSLAB":"Influenza Vaccination History","CRFOD":16,"CRFVAL":"SEASONAL INFLUENZA VACCINATION BETWEEN 01SEP2017 AND 31AUG2018","CRFVALUT":null,"CRFVAR":"CMTERM","CRFVAROD":5,"CRFVERS":"V1.0_LIVE_30OCT2019_PW","CRFVISDU":[-1],"CRFVISDY":[-1],"CRFVISID":["10_V01"],"CRFVISIT":["Visit 01"],"CRFVISOD":[1],"HEIGHT":15.744,"ID":107,"NONCOL":true,"ORDER":3,"PAGENUMBER":15,"WIDTH":97.188,"X":70.866,"Y":404.671},"location":{"x":70.866,"y":404.671,"width":97.188,"height":15.744},"position":{"x":170.054,"y":402.671,"width":1,"height":15.744}}}},"cmoccur":{"id":"CMOCCUR","notsub":false,"noncol":false,"label":"Vaccination received? (If Yes, provide Details)","record":{"108":{"id":108,"raw":{"CDASHDOM":["CM"],"CDASHTYPE":"IG","CDASHVAR":"CMOCCUR","CLASS":"question","CRFCODE":["Y","N","U"],"CRFCODELAB":["Yes","No","Unknown"],"CRFDES":"Vaccination received? (If Yes, provide Details)","CRFDIC":"NY_YNU","CRFDOM":"CM","CRFDS":"CM_VAC_ALL","CRFDSLAB":"Influenza Vaccination History","CRFOD":16,"CRFVALUT":null,"CRFVAR":"CMOCCUR","CRFVAROD":6,"CRFVERS":"V1.0_LIVE_30OCT2019_PW","CRFVISDU":[-1],"CRFVISDY":[-1],"CRFVISID":["10_V01"],"CRFVISIT":["Visit 01"],"CRFVISOD":[1],"HEIGHT":15.948,"ID":108,"ORDER":4,"PAGENUMBER":15,"SDTMDOM":["CM"],"SDTMTYPE":"IG","SDTMVAR":["CMOCCUR","CMSTAT"],"WIDTH":225.012,"X":70.866,"Y":359.671},"location":{"x":70.866,"y":359.671,"width":225.012,"height":15.948},"position":{"x":297.878,"y":357.671,"width":129.046,"height":15.948},"domain":{"cm":{"id":"CM","label":"Concomitant/Prior Medications","variable":{"cmoccur":{"id":"CMOCCUR","label":"CM Occurrence","element":{"value":"CMOCCUR","type":"variable","position":{"x":300.878,"y":357.671,"width":71.151,"height":15.948},"identifier":{"form":"cm_vac_all","page":15,"field":"cmoccur","record":108,"domain":"cm","variable":"cmoccur"},"style":{"color":"#FF0000","background-color":"#BFFFFF","bolder-style":"dash"}}},"cmstat":{"id":"CMSTAT","label":"Completion Status","element":{"value":"CMSTAT","type":"variable","position":{"x":372.029,"y":357.671,"width":56.895,"height":15.948},"identifier":{"form":"cm_vac_all","page":15,"field":"cmoccur","record":108,"domain":"cm","variable":"cmstat"},"style":{"color":"#FF0000","background-color":"#BFFFFF","bolder-style":"dash"}}}}}}}}},"cmstdat":{"id":"CMSTDAT","notsub":false,"noncol":false,"label":"Date of Last Administration","record":{"109":{"id":109,"raw":{"CDASHDOM":["CM"],"CDASHTYPE":"IG","CDASHVAR":"CMSTDAT","CLASS":"question","CRFCODELAB":null,"CRFDES":"Date of Last Administration","CRFDOM":"CM","CRFDS":"CM_VAC_ALL","CRFDSLAB":"Influenza Vaccination History","CRFOD":16,"CRFVALUT":null,"CRFVAR":"CMSTDAT","CRFVAROD":7,"CRFVERS":"V1.0_LIVE_30OCT2019_PW","CRFVISDU":[-1],"CRFVISDY":[-1],"CRFVISID":["10_V01"],"CRFVISIT":["Visit 01"],"CRFVISOD":[1],"HEIGHT":15.744,"ID":109,"ORDER":5,"PAGENUMBER":15,"SDTMDOM":["CM"],"SDTMTYPE":"IG","SDTMVAR":["CMSTDTC"],"WIDTH":134.832,"X":70.866,"Y":308.671},"location":{"x":70.866,"y":308.671,"width":134.832,"height":15.744},"position":{"x":207.69799999999998,"y":306.671,"width":67.874,"height":15.744},"domain":{"cm":{"id":"CM","label":"Concomitant/Prior Medications","variable":{"cmstdtc":{"id":"CMSTDTC","label":"Start Date/Time of Medication","element":{"value":"CMSTDTC","type":"variable","position":{"x":210.69799999999998,"y":306.671,"width":66.874,"height":15.744},"identifier":{"form":"cm_vac_all","page":15,"field":"cmstdat","record":109,"domain":"cm","variable":"cmstdtc"},"style":{"color":"#FF0000","background-color":"#BFFFFF","bolder-style":"dash"}}}}}}}}}}},"16":{"id":16,"notsub":false,"noncol":false,"position":{"x":72,"y":769,"width":244.03700000000003,"height":18},"header":{"cm":{"id":"CM","style":{"color":"#FF0000","background-color":"#BFFFFF","bolder-style":"dash"},"element":{"value":"CM(Concomitant/Prior Medications)","type":"domain","position":{"x":72,"y":769,"width":244.037,"height":18},"identifier":{"form":"cm_vac_all","page":16,"field":"cmpresp","record":111,"domain":"cm"},"style":{"color":"#FF0000","background-color":"#BFFFFF","bolder-style":"dash"}}}},"field":{"cmpresp":{"id":"CMPRESP","notsub":false,"noncol":false,"label":"Pre-Specified?","record":{"111":{"id":111,"raw":{"CDASHDOM":["CM"],"CDASHTYPE":"SANOFI","CDASHVAR":"CMPRESP","CLASS":"question","CRFCODE":["Y","N"],"CRFCODELAB":["Yes","No"],"CRFDES":"Pre-Specified?","CRFDIC":"NY_YN","CRFDOM":"CM","CRFDS":"CM_VAC_ALL","CRFDSLAB":"Influenza Vaccination History","CRFOD":16,"CRFVAL":"Y","CRFVALUT":null,"CRFVAR":"CMPRESP","CRFVAROD":4,"CRFVERS":"V1.0_LIVE_30OCT2019_PW","CRFVISDU":[-1],"CRFVISDY":[-1],"CRFVISID":["10_V01"],"CRFVISIT":["Visit 01"],"CRFVISOD":[1],"HEIGHT":15.744,"ID":111,"NONCOL":true,"ORDER":1,"PAGENUMBER":16,"SDTMDOM":["CM"],"SDTMTYPE":"SANOFI","SDTMVAR":["CMPRESP"],"WIDTH":70.56,"X":70.866,"Y":666.671},"location":{"x":70.866,"y":666.671,"width":70.56,"height":15.744},"position":{"x":143.426,"y":664.671,"width":68.781,"height":15.744},"domain":{"cm":{"id":"CM","label":"Concomitant/Prior Medications","variable":{"cmpresp":{"id":"CMPRESP","label":"CM Pre-specified","element":{"value":"CMPRESP","type":"variable","position":{"x":146.426,"y":664.671,"width":67.781,"height":15.744},"identifier":{"form":"cm_vac_all","page":16,"field":"cmpresp","record":111,"domain":"cm","variable":"cmpresp"},"style":{"color":"#FF0000","background-color":"#BFFFFF","bolder-style":"dash"}}}}}}}}},"cmterm":{"id":"CMTERM","notsub":false,"noncol":false,"label":"Year of Vaccination","record":{"112":{"id":112,"raw":{"CDASHDOM":["CM"],"CDASHTYPE":"SANOFI","CDASHVAR":"CMTERM","CLASS":"question","CRFCODELAB":null,"CRFDES":"Year of Vaccination","CRFDOM":"CM","CRFDS":"CM_VAC_ALL","CRFDSLAB":"Influenza Vaccination History","CRFOD":16,"CRFVAL":"SEASONAL INFLUENZA VACCINATION BETWEEN 01SEP2016 AND 31AUG2017","CRFVALUT":null,"CRFVAR":"CMTERM","CRFVAROD":5,"CRFVERS":"V1.0_LIVE_30OCT2019_PW","CRFVISDU":[-1],"CRFVISDY":[-1],"CRFVISID":["10_V01"],"CRFVISIT":["Visit 01"],"CRFVISOD":[1],"HEIGHT":15.744,"ID":112,"NONCOL":true,"ORDER":2,"PAGENUMBER":16,"WIDTH":97.188,"X":70.866,"Y":631.671},"location":{"x":70.866,"y":631.671,"width":97.188,"height":15.744},"position":{"x":170.054,"y":629.671,"width":1,"height":15.744}}}},"cmoccur":{"id":"CMOCCUR","notsub":false,"noncol":false,"label":"Vaccination received? (If Yes, provide Details)","record":{"113":{"id":113,"raw":{"CDASHDOM":["CM"],"CDASHTYPE":"IG","CDASHVAR":"CMOCCUR","CLASS":"question","CRFCODE":["Y","N","U"],"CRFCODELAB":["Yes","No","Unknown"],"CRFDES":"Vaccination received? (If Yes, provide Details)","CRFDIC":"NY_YNU","CRFDOM":"CM","CRFDS":"CM_VAC_ALL","CRFDSLAB":"Influenza Vaccination History","CRFOD":16,"CRFVALUT":null,"CRFVAR":"CMOCCUR","CRFVAROD":6,"CRFVERS":"V1.0_LIVE_30OCT2019_PW","CRFVISDU":[-1],"CRFVISDY":[-1],"CRFVISID":["10_V01"],"CRFVISIT":["Visit 01"],"CRFVISOD":[1],"HEIGHT":15.948,"ID":113,"ORDER":3,"PAGENUMBER":16,"SDTMDOM":["CM"],"SDTMTYPE":"IG","SDTMVAR":["CMOCCUR","CMSTAT"],"WIDTH":225.012,"X":70.866,"Y":586.671},"location":{"x":70.866,"y":586.671,"width":225.012,"height":15.948},"position":{"x":297.878,"y":584.671,"width":129.046,"height":15.948},"domain":{"cm":{"id":"CM","label":"Concomitant/Prior Medications","variable":{"cmoccur":{"id":"CMOCCUR","label":"CM Occurrence","element":{"value":"CMOCCUR","type":"variable","position":{"x":300.878,"y":584.671,"width":71.151,"height":15.948},"identifier":{"form":"cm_vac_all","page":16,"field":"cmoccur","record":113,"domain":"cm","variable":"cmoccur"},"style":{"color":"#FF0000","background-color":"#BFFFFF","bolder-style":"dash"}}},"cmstat":{"id":"CMSTAT","label":"Completion Status","element":{"value":"CMSTAT","type":"variable","position":{"x":372.029,"y":584.671,"width":56.895,"height":15.948},"identifier":{"form":"cm_vac_all","page":16,"field":"cmoccur","record":113,"domain":"cm","variable":"cmstat"},"style":{"color":"#FF0000","background-color":"#BFFFFF","bolder-style":"dash"}}}}}}}}},"cmstdat":{"id":"CMSTDAT","notsub":false,"noncol":false,"label":"Date of Last Administration","record":{"114":{"id":114,"raw":{"CDASHDOM":["CM"],"CDASHTYPE":"IG","CDASHVAR":"CMSTDAT","CLASS":"question","CRFCODELAB":null,"CRFDES":"Date of Last Administration","CRFDOM":"CM","CRFDS":"CM_VAC_ALL","CRFDSLAB":"Influenza Vaccination History","CRFOD":16,"CRFVALUT":null,"CRFVAR":"CMSTDAT","CRFVAROD":7,"CRFVERS":"V1.0_LIVE_30OCT2019_PW","CRFVISDU":[-1],"CRFVISDY":[-1],"CRFVISID":["10_V01"],"CRFVISIT":["Visit 01"],"CRFVISOD":[1],"HEIGHT":15.744,"ID":114,"ORDER":4,"PAGENUMBER":16,"SDTMDOM":["CM"],"SDTMTYPE":"IG","SDTMVAR":["CMSTDTC"],"WIDTH":134.832,"X":70.866,"Y":535.671},"location":{"x":70.866,"y":535.671,"width":134.832,"height":15.744},"position":{"x":207.69799999999998,"y":533.671,"width":67.874,"height":15.744},"domain":{"cm":{"id":"CM","label":"Concomitant/Prior Medications","variable":{"cmstdtc":{"id":"CMSTDTC","label":"Start Date/Time of Medication","element":{"value":"CMSTDTC","type":"variable","position":{"x":210.69799999999998,"y":533.671,"width":66.874,"height":15.744},"identifier":{"form":"cm_vac_all","page":16,"field":"cmstdat","record":114,"domain":"cm","variable":"cmstdtc"},"style":{"color":"#FF0000","background-color":"#BFFFFF","bolder-style":"dash"}}}}}}}}}}}}},"mh_vac_flu":{"id":"MH_VAC_FLU","start":17,"end":null,"notsub":false,"header":{},"page":{"17":{"id":17,"notsub":false,"noncol":false,"position":{"x":72,"y":769,"width":141.07,"height":18},"header":{"mh":{"id":"MH","style":{"color":"#FF0000","background-color":"#BFFFFF","bolder-style":"dash"},"element":{"value":"MH(Medical History)","type":"domain","position":{"x":72,"y":769,"width":141.07,"height":18},"identifier":{"form":"mh_vac_flu","page":17,"field":"mhcat","record":115,"domain":"mh"},"style":{"color":"#FF0000","background-color":"#BFFFFF","bolder-style":"dash"}}}},"field":{"mhcat":{"id":"MHCAT","notsub":false,"noncol":false,"label":"MH Category","record":{"115":{"id":115,"raw":{"CDASHDOM":["MH"],"CDASHTYPE":"IG","CDASHVAR":"MHCAT","CLASS":"question","CRFCODE":["ALLERGY","ASTHMA","BLOOD DISORDER","CARDIOVASCULAR DISORDER","DIABETES","DISEASE HISTORY","EPISTAXIS","HEPATOBILIARY DISORDER","HYPERLIPOPROTEINEMIA","JUVENILE IDIOPATHIC ARTHRITIS","MEDICAL OR SURGICAL","MULTIPLE SCLEROSIS","NEUROLOGIC DISORDER","POLYPOSIS","POMPE DISEASE","RENAL DISORDER","RESPIRATORY DISORDER","RHEUMATOLOGIC DISORDER","RHINOSINUSITIS","SAE COMPLEMENTARY INFORMATION","SCLERODERMA","OTHER"],"CRFCODELAB":["Allergy","Asthma","Blood Disorder","Cardiovascular Disorder","Diabetes","Disease History","Epistaxis","Hepatobiliary Disorder","Hyperlipoproteinemia","Juvenile Idiopathic Arthritis","Medical or Surgical","Multiple Sclerosis","Neurologic Disorder","Polyposis","Pompe Disease","Renal Disorder","Respiratory Disorder","Rheumatologic Disorder","Rhinosinusitis","SAE Complementary Information","Scleroderma","Other"],"CRFDES":"MH Category","CRFDIC":"MHCAT","CRFDOM":"MH","CRFDS":"MH_VAC_FLU","CRFDSLAB":"History of Flu Diagnosis","CRFOD":17,"CRFVAL":"DISEASE HISTORY","CRFVALUT":null,"CRFVAR":"MHCAT","CRFVAROD":1,"CRFVERS":"V1.0_LIVE_30OCT2019_PW","CRFVISDU":[-1],"CRFVISDY":[-1],"CRFVISID":["10_V01"],"CRFVISIT":["Visit 01"],"CRFVISOD":[1],"HEIGHT":15.744,"ID":115,"NONCOL":true,"ORDER":1,"PAGENUMBER":17,"SDTMDOM":["MH"],"SDTMTYPE":"IG","SDTMVAR":["MHCAT"],"WIDTH":66.276,"X":70.866,"Y":666.671},"location":{"x":70.866,"y":666.671,"width":66.276,"height":15.744},"position":{"x":139.142,"y":664.671,"width":50.637,"height":15.744},"domain":{"mh":{"id":"MH","label":"Medical History","variable":{"mhcat":{"id":"MHCAT","label":"Category for Medical History","element":{"value":"MHCAT","type":"variable","position":{"x":142.142,"y":664.671,"width":49.637,"height":15.744},"identifier":{"form":"mh_vac_flu","page":17,"field":"mhcat","record":115,"domain":"mh","variable":"mhcat"},"style":{"color":"#FF0000","background-color":"#BFFFFF","bolder-style":"dash"}}}}}}}}},"prompt_mhflh_01":{"id":"PROMPT_MHFLH_01","notsub":false,"noncol":false,"label":"Record information related only to Influenza disease history.","record":{"116":{"id":116,"raw":{"CDASHDOM":["MH"],"CDASHTYPE":"SANOFI","CDASHVAR":"PROMPT_MHFLH_01","CLASS":"question","CRFCODELAB":null,"CRFDES":"Record information related only to Influenza disease history.","CRFDOM":"MH","CRFDS":"MH_VAC_FLU","CRFDSLAB":"History of Flu Diagnosis","CRFOD":17,"CRFVALUT":null,"CRFVAR":"PROMPT_MHFLH_01","CRFVAROD":2,"CRFVERS":"V1.0_LIVE_30OCT2019_PW","CRFVISDU":[-1],"CRFVISDY":[-1],"CRFVISID":["10_V01"],"CRFVISIT":["Visit 01"],"CRFVISOD":[1],"HEIGHT":15.948,"ID":116,"ORDER":2,"PAGENUMBER":17,"WIDTH":292.38,"X":70.866,"Y":299.659},"location":{"x":70.866,"y":299.659,"width":292.38,"height":15.948},"position":{"x":365.246,"y":297.659,"width":1,"height":15.948}}}},"mhpresp":{"id":"MHPRESP","notsub":false,"noncol":false,"label":"Pre-Specified?","record":{"117":{"id":117,"raw":{"CDASHDOM":["MH"],"CDASHTYPE":"IG","CDASHVAR":"MHPRESP","CLASS":"question","CRFCODE":["Y","N"],"CRFCODELAB":["Yes","No"],"CRFDES":"Pre-Specified?","CRFDIC":"NY_YN","CRFDOM":"MH","CRFDS":"MH_VAC_FLU","CRFDSLAB":"History of Flu Diagnosis","CRFOD":17,"CRFVAL":"Y","CRFVALUT":null,"CRFVAR":"MHPRESP","CRFVAROD":3,"CRFVERS":"V1.0_LIVE_30OCT2019_PW","CRFVISDU":[-1],"CRFVISDY":[-1],"CRFVISID":["10_V01"],"CRFVISIT":["Visit 01"],"CRFVISOD":[1],"HEIGHT":15.744,"ID":117,"NONCOL":true,"ORDER":3,"PAGENUMBER":17,"SDTMDOM":["MH"],"SDTMTYPE":"IG","SDTMVAR":["MHPRESP"],"WIDTH":70.56,"X":70.866,"Y":279.671},"location":{"x":70.866,"y":279.671,"width":70.56,"height":15.744},"position":{"x":143.426,"y":277.671,"width":68.781,"height":15.744},"domain":{"mh":{"id":"MH","label":"Medical History","variable":{"mhpresp":{"id":"MHPRESP","label":"Medical History Event Pre-Specified","element":{"value":"MHPRESP","type":"variable","position":{"x":146.426,"y":277.671,"width":67.781,"height":15.744},"identifier":{"form":"mh_vac_flu","page":17,"field":"mhpresp","record":117,"domain":"mh","variable":"mhpresp"},"style":{"color":"#FF0000","background-color":"#BFFFFF","bolder-style":"dash"}}}}}}},"123":{"id":123,"raw":{"CDASHDOM":["MH"],"CDASHTYPE":"IG","CDASHVAR":"MHPRESP","CLASS":"question","CRFCODE":["Y","N"],"CRFCODELAB":["Yes","No"],"CRFDES":"Pre-Specified?","CRFDIC":"NY_YN","CRFDOM":"MH","CRFDS":"MH_VAC_FLU","CRFDSLAB":"History of Flu Diagnosis","CRFOD":17,"CRFVAL":"Y","CRFVALUT":null,"CRFVAR":"MHPRESP","CRFVAROD":3,"CRFVERS":"V1.0_LIVE_30OCT2019_PW","CRFVISDU":[-1],"CRFVISDY":[-1],"CRFVISID":["10_V01"],"CRFVISIT":["Visit 01"],"CRFVISOD":[1],"HEIGHT":15.744,"ID":123,"NONCOL":true,"ORDER":10,"PAGENUMBER":17,"SDTMDOM":["MH"],"SDTMTYPE":"IG","SDTMVAR":["MHPRESP"],"WIDTH":70.56,"X":70.866,"Y":108.671},"location":{"x":70.866,"y":108.671,"width":70.56,"height":15.744},"position":{"x":143.426,"y":106.671,"width":68.781,"height":15.744},"domain":{"mh":{"id":"MH","label":"Medical History","variable":{"mhpresp":{"id":"MHPRESP","label":"Medical History Event Pre-Specified","element":{"value":"MHPRESP","type":"variable","position":{"x":146.426,"y":106.671,"width":67.781,"height":15.744},"identifier":{"form":"mh_vac_flu","page":17,"field":"mhpresp","record":123,"domain":"mh","variable":"mhpresp"},"style":{"color":"#FF0000","background-color":"#BFFFFF","bolder-style":"dash"}}}}}}}}},"mhterm":{"id":"MHTERM","notsub":false,"noncol":false,"label":"Type of Infection","record":{"118":{"id":118,"raw":{"CDASHDOM":["MH"],"CDASHTYPE":"IG","CDASHVAR":"MHTERM","CLASS":"question","CRFCODELAB":null,"CRFDES":"Type of Infection","CRFDOM":"MH","CRFDS":"MH_VAC_FLU","CRFDSLAB":"History of Flu Diagnosis","CRFOD":17,"CRFVAL":"LABORATORY-CONFIRMED INFLUENZA ILLNESS","CRFVALUT":null,"CRFVAR":"MHTERM","CRFVAROD":4,"CRFVERS":"V1.0_LIVE_30OCT2019_PW","CRFVISDU":[-1],"CRFVISDY":[-1],"CRFVISID":["10_V01"],"CRFVISIT":["Visit 01"],"CRFVISOD":[1],"HEIGHT":15.744,"ID":118,"NONCOL":true,"ORDER":4,"PAGENUMBER":17,"SDTMDOM":["MH"],"SDTMTYPE":"IG","SDTMVAR":["MHTERM"],"WIDTH":83.904,"X":70.866,"Y":244.671},"location":{"x":70.866,"y":244.671,"width":83.904,"height":15.744},"position":{"x":156.76999999999998,"y":242.671,"width":61.394,"height":15.744},"domain":{"mh":{"id":"MH","label":"Medical History","variable":{"mhterm":{"id":"MHTERM","label":"Reported Term for the Medical History","element":{"value":"MHTERM","type":"variable","position":{"x":159.76999999999998,"y":242.671,"width":60.394,"height":15.744},"identifier":{"form":"mh_vac_flu","page":17,"field":"mhterm","record":118,"domain":"mh","variable":"mhterm"},"style":{"color":"#FF0000","background-color":"#BFFFFF","bolder-style":"dash"}}}}}}},"124":{"id":124,"raw":{"CDASHDOM":["MH"],"CDASHTYPE":"IG","CDASHVAR":"MHTERM","CLASS":"question","CRFCODELAB":null,"CRFDES":"Type of Infection","CRFDOM":"MH","CRFDS":"MH_VAC_FLU","CRFDSLAB":"History of Flu Diagnosis","CRFOD":17,"CRFVAL":" LABORATORY-CONFIRMED INFLUENZA ILLNESS","CRFVALUT":null,"CRFVAR":"MHTERM","CRFVAROD":4,"CRFVERS":"V1.0_LIVE_30OCT2019_PW","CRFVISDU":[-1],"CRFVISDY":[-1],"CRFVISID":["10_V01"],"CRFVISIT":["Visit 01"],"CRFVISOD":[1],"HEIGHT":15.744,"ID":124,"NONCOL":true,"ORDER":11,"PAGENUMBER":17,"SDTMDOM":["MH"],"SDTMTYPE":"IG","SDTMVAR":["MHTERM"],"WIDTH":83.904,"X":70.866,"Y":73.671},"location":{"x":70.866,"y":73.671,"width":83.904,"height":15.744},"position":{"x":156.76999999999998,"y":71.671,"width":61.394,"height":15.744},"domain":{"mh":{"id":"MH","label":"Medical History","variable":{"mhterm":{"id":"MHTERM","label":"Reported Term for the Medical History","element":{"value":"MHTERM","type":"variable","position":{"x":159.76999999999998,"y":71.671,"width":60.394,"height":15.744},"identifier":{"form":"mh_vac_flu","page":17,"field":"mhterm","record":124,"domain":"mh","variable":"mhterm"},"style":{"color":"#FF0000","background-color":"#BFFFFF","bolder-style":"dash"}}}}}}}}},"mhevintx":{"id":"MHEVINTX","notsub":false,"noncol":false,"label":"Evaluation Interval","record":{"119":{"id":119,"raw":{"CDASHDOM":["MH"],"CDASHTYPE":"SANOFI","CDASHVAR":"MHEVINTX","CLASS":"question","CRFCODELAB":null,"CRFDES":"Evaluation Interval","CRFDOM":"MH","CRFDS":"MH_VAC_FLU","CRFDSLAB":"History of Flu Diagnosis","CRFOD":17,"CRFVAL":"SINCE 01SEP2019","CRFVALUT":null,"CRFVAR":"MHEVINTX","CRFVAROD":5,"CRFVERS":"V1.0_LIVE_30OCT2019_PW","CRFVISDU":[-1],"CRFVISDY":[-1],"CRFVISID":["10_V01"],"CRFVISIT":["Visit 01"],"CRFVISOD":[1],"HEIGHT":15.744,"ID":119,"NONCOL":true,"ORDER":5,"PAGENUMBER":17,"WIDTH":92.196,"X":70.866,"Y":213.671},"location":{"x":70.866,"y":213.671,"width":92.196,"height":15.744},"position":{"x":165.062,"y":211.671,"width":1,"height":15.744}}}},"mhoccur":{"id":"MHOCCUR","notsub":false,"noncol":false,"label":"Was infection experienced during the evaluation interval? (If Yes, Provide Details)","record":{"120":{"id":120,"raw":{"CDASHDOM":["MH"],"CDASHTYPE":"IG","CDASHVAR":"MHOCCUR","CLASS":"question","CRFCODE":["Y","N","U"],"CRFCODELAB":["Yes","No","Unknown"],"CRFDES":"Was infection experienced during the evaluation interval? (If Yes, Provide Details)","CRFDIC":"NY_YNU","CRFDOM":"MH","CRFDS":"MH_VAC_FLU","CRFDSLAB":"History of Flu Diagnosis","CRFOD":17,"CRFVALUT":null,"CRFVAR":"MHOCCUR","CRFVAROD":6,"CRFVERS":"V1.0_LIVE_30OCT2019_PW","CRFVISDU":[-1],"CRFVISDY":[-1],"CRFVISID":["10_V01"],"CRFVISIT":["Visit 01"],"CRFVISOD":[1],"HEIGHT":15.948,"ID":120,"ORDER":6,"PAGENUMBER":17,"SDTMDOM":["MH"],"SDTMTYPE":"IG","SDTMVAR":["MHOCCUR"],"WIDTH":314.568,"X":70.866,"Y":196.671},"location":{"x":70.866,"y":196.671,"width":314.568,"height":15.948},"position":{"x":387.43399999999997,"y":194.671,"width":72.151,"height":15.948},"domain":{"mh":{"id":"MH","label":"Medical History","variable":{"mhoccur":{"id":"MHOCCUR","label":"Medical History Occurrence","element":{"value":"MHOCCUR","type":"variable","position":{"x":390.43399999999997,"y":194.671,"width":71.151,"height":15.948},"identifier":{"form":"mh_vac_flu","page":17,"field":"mhoccur","record":120,"domain":"mh","variable":"mhoccur"},"style":{"color":"#FF0000","background-color":"#BFFFFF","bolder-style":"dash"}}}}}}}}},"mhstdat":{"id":"MHSTDAT","notsub":false,"noncol":false,"label":"Date","record":{"121":{"id":121,"raw":{"CDASHDOM":["MH"],"CDASHTYPE":"IG","CDASHVAR":"MHSTDAT","CLASS":"question","CRFCODELAB":null,"CRFDES":"Date","CRFDOM":"MH","CRFDS":"MH_VAC_FLU","CRFDSLAB":"History of Flu Diagnosis","CRFOD":17,"CRFVALUT":null,"CRFVAR":"MHSTDAT","CRFVAROD":7,"CRFVERS":"V1.0_LIVE_30OCT2019_PW","CRFVISDU":[-1],"CRFVISDY":[-1],"CRFVISID":["10_V01"],"CRFVISIT":["Visit 01"],"CRFVISOD":[1],"HEIGHT":15.744,"ID":121,"ORDER":8,"PAGENUMBER":17,"SDTMDOM":["MH"],"SDTMTYPE":"IG","SDTMVAR":["MHSTDTC"],"WIDTH":22.62,"X":70.866,"Y":145.671},"location":{"x":70.866,"y":145.671,"width":22.62,"height":15.744},"position":{"x":95.486,"y":143.671,"width":67.874,"height":15.744},"domain":{"mh":{"id":"MH","label":"Medical History","variable":{"mhstdtc":{"id":"MHSTDTC","label":"Start Date/Time of Medical History Event","element":{"value":"MHSTDTC","type":"variable","position":{"x":98.486,"y":143.671,"width":66.874,"height":15.744},"identifier":{"form":"mh_vac_flu","page":17,"field":"mhstdat","record":121,"domain":"mh","variable":"mhstdtc"},"style":{"color":"#FF0000","background-color":"#BFFFFF","bolder-style":"dash"}}}}}}}}},"mhterm1":{"id":"MHTERM1","notsub":false,"noncol":false,"label":"Specify Symptoms","record":{"122":{"id":122,"raw":{"CDASHDOM":["MH"],"CDASHTYPE":"SANOFI","CDASHVAR":"MHTERM1","CLASS":"question","CRFCODELAB":null,"CRFDES":"Specify Symptoms","CRFDOM":"MH","CRFDS":"MH_VAC_FLU","CRFDSLAB":"History of Flu Diagnosis","CRFOD":17,"CRFVALUT":null,"CRFVAR":"MHTERM1","CRFVAROD":8,"CRFVERS":"V1.0_LIVE_30OCT2019_PW","CRFVISDU":[-1],"CRFVISDY":[-1],"CRFVISID":["10_V01"],"CRFVISIT":["Visit 01"],"CRFVISOD":[1],"HEIGHT":15.744,"ID":122,"ORDER":9,"PAGENUMBER":17,"WIDTH":90.936,"X":70.866,"Y":128.671},"location":{"x":70.866,"y":128.671,"width":90.936,"height":15.744},"position":{"x":163.80200000000002,"y":126.67099999999999,"width":1,"height":15.744}}}}}},"18":{"id":18,"notsub":false,"noncol":false,"position":{"x":72,"y":769,"width":141.07,"height":18},"header":{"mh":{"id":"MH","style":{"color":"#FF0000","background-color":"#BFFFFF","bolder-style":"dash"},"element":{"value":"MH(Medical History)","type":"domain","position":{"x":72,"y":769,"width":141.07,"height":18},"identifier":{"form":"mh_vac_flu","page":18,"field":"mhoccur","record":126,"domain":"mh"},"style":{"color":"#FF0000","background-color":"#BFFFFF","bolder-style":"dash"}}}},"field":{"mhevintx":{"id":"MHEVINTX","notsub":false,"noncol":false,"label":"Evaluation Interval","record":{"125":{"id":125,"raw":{"CDASHDOM":["MH"],"CDASHTYPE":"SANOFI","CDASHVAR":"MHEVINTX","CLASS":"question","CRFCODELAB":null,"CRFDES":"Evaluation Interval","CRFDOM":"MH","CRFDS":"MH_VAC_FLU","CRFDSLAB":"History of Flu Diagnosis","CRFOD":17,"CRFVAL":"BETWEEN 01SEP2018 AND 31AUG2019","CRFVALUT":null,"CRFVAR":"MHEVINTX","CRFVAROD":5,"CRFVERS":"V1.0_LIVE_30OCT2019_PW","CRFVISDU":[-1],"CRFVISDY":[-1],"CRFVISID":["10_V01"],"CRFVISIT":["Visit 01"],"CRFVISOD":[1],"HEIGHT":15.744,"ID":125,"NONCOL":true,"ORDER":1,"PAGENUMBER":18,"WIDTH":92.196,"X":70.866,"Y":635.671},"location":{"x":70.866,"y":635.671,"width":92.196,"height":15.744},"position":{"x":165.062,"y":633.671,"width":1,"height":15.744}},"131":{"id":131,"raw":{"CDASHDOM":["MH"],"CDASHTYPE":"SANOFI","CDASHVAR":"MHEVINTX","CLASS":"question","CRFCODELAB":null,"CRFDES":"Evaluation Interval","CRFDOM":"MH","CRFDS":"MH_VAC_FLU","CRFDSLAB":"History of Flu Diagnosis","CRFOD":17,"CRFVAL":"BETWEEN 01SEP2017 AND 31AUG2018","CRFVALUT":null,"CRFVAR":"MHEVINTX","CRFVAROD":5,"CRFVERS":"V1.0_LIVE_30OCT2019_PW","CRFVISDU":[-1],"CRFVISDY":[-1],"CRFVISID":["10_V01"],"CRFVISIT":["Visit 01"],"CRFVISOD":[1],"HEIGHT":15.744,"ID":131,"NONCOL":true,"ORDER":8,"PAGENUMBER":18,"WIDTH":92.196,"X":70.866,"Y":450.671},"location":{"x":70.866,"y":450.671,"width":92.196,"height":15.744},"position":{"x":165.062,"y":448.671,"width":1,"height":15.744}},"137":{"id":137,"raw":{"CDASHDOM":["MH"],"CDASHTYPE":"SANOFI","CDASHVAR":"MHEVINTX","CLASS":"question","CRFCODELAB":null,"CRFDES":"Evaluation Interval","CRFDOM":"MH","CRFDS":"MH_VAC_FLU","CRFDSLAB":"History of Flu Diagnosis","CRFOD":17,"CRFVAL":"BETWEEN 01SEP2016 AND 31AUG2017","CRFVALUT":null,"CRFVAR":"MHEVINTX","CRFVAROD":5,"CRFVERS":"V1.0_LIVE_30OCT2019_PW","CRFVISDU":[-1],"CRFVISDY":[-1],"CRFVISID":["10_V01"],"CRFVISIT":["Visit 01"],"CRFVISOD":[1],"HEIGHT":15.744,"ID":137,"NONCOL":true,"ORDER":15,"PAGENUMBER":18,"WIDTH":92.196,"X":70.866,"Y":265.671},"location":{"x":70.866,"y":265.671,"width":92.196,"height":15.744},"position":{"x":165.062,"y":263.671,"width":1,"height":15.744}}}},"mhoccur":{"id":"MHOCCUR","notsub":false,"noncol":false,"label":"Was infection experienced during the evaluation interval? (If Yes, Provide Details)","record":{"126":{"id":126,"raw":{"CDASHDOM":["MH"],"CDASHTYPE":"IG","CDASHVAR":"MHOCCUR","CLASS":"question","CRFCODE":["Y","N","U"],"CRFCODELAB":["Yes","No","Unknown"],"CRFDES":"Was infection experienced during the evaluation interval? (If Yes, Provide Details)","CRFDIC":"NY_YNU","CRFDOM":"MH","CRFDS":"MH_VAC_FLU","CRFDSLAB":"History of Flu Diagnosis","CRFOD":17,"CRFVALUT":null,"CRFVAR":"MHOCCUR","CRFVAROD":6,"CRFVERS":"V1.0_LIVE_30OCT2019_PW","CRFVISDU":[-1],"CRFVISDY":[-1],"CRFVISID":["10_V01"],"CRFVISIT":["Visit 01"],"CRFVISOD":[1],"HEIGHT":15.948,"ID":126,"ORDER":2,"PAGENUMBER":18,"SDTMDOM":["MH"],"SDTMTYPE":"IG","SDTMVAR":["MHOCCUR"],"WIDTH":314.568,"X":70.866,"Y":604.671},"location":{"x":70.866,"y":604.671,"width":314.568,"height":15.948},"position":{"x":387.43399999999997,"y":602.671,"width":72.151,"height":15.948},"domain":{"mh":{"id":"MH","label":"Medical History","variable":{"mhoccur":{"id":"MHOCCUR","label":"Medical History Occurrence","element":{"value":"MHOCCUR","type":"variable","position":{"x":390.43399999999997,"y":602.671,"width":71.151,"height":15.948},"identifier":{"form":"mh_vac_flu","page":18,"field":"mhoccur","record":126,"domain":"mh","variable":"mhoccur"},"style":{"color":"#FF0000","background-color":"#BFFFFF","bolder-style":"dash"}}}}}}},"132":{"id":132,"raw":{"CDASHDOM":["MH"],"CDASHTYPE":"IG","CDASHVAR":"MHOCCUR","CLASS":"question","CRFCODE":["Y","N","U"],"CRFCODELAB":["Yes","No","Unknown"],"CRFDES":"Was infection experienced during the evaluation interval? (If Yes, Provide Details)","CRFDIC":"NY_YNU","CRFDOM":"MH","CRFDS":"MH_VAC_FLU","CRFDSLAB":"History of Flu Diagnosis","CRFOD":17,"CRFVALUT":null,"CRFVAR":"MHOCCUR","CRFVAROD":6,"CRFVERS":"V1.0_LIVE_30OCT2019_PW","CRFVISDU":[-1],"CRFVISDY":[-1],"CRFVISID":["10_V01"],"CRFVISIT":["Visit 01"],"CRFVISOD":[1],"HEIGHT":15.948,"ID":132,"ORDER":9,"PAGENUMBER":18,"SDTMDOM":["MH"],"SDTMTYPE":"IG","SDTMVAR":["MHOCCUR"],"WIDTH":314.568,"X":70.866,"Y":419.671},"location":{"x":70.866,"y":419.671,"width":314.568,"height":15.948},"position":{"x":387.43399999999997,"y":417.671,"width":72.151,"height":15.948},"domain":{"mh":{"id":"MH","label":"Medical History","variable":{"mhoccur":{"id":"MHOCCUR","label":"Medical History Occurrence","element":{"value":"MHOCCUR","type":"variable","position":{"x":390.43399999999997,"y":417.671,"width":71.151,"height":15.948},"identifier":{"form":"mh_vac_flu","page":18,"field":"mhoccur","record":132,"domain":"mh","variable":"mhoccur"},"style":{"color":"#FF0000","background-color":"#BFFFFF","bolder-style":"dash"}}}}}}},"138":{"id":138,"raw":{"CDASHDOM":["MH"],"CDASHTYPE":"IG","CDASHVAR":"MHOCCUR","CLASS":"question","CRFCODE":["Y","N","U"],"CRFCODELAB":["Yes","No","Unknown"],"CRFDES":"Was infection experienced during the evaluation interval? (If Yes, Provide Details)","CRFDIC":"NY_YNU","CRFDOM":"MH","CRFDS":"MH_VAC_FLU","CRFDSLAB":"History of Flu Diagnosis","CRFOD":17,"CRFVALUT":null,"CRFVAR":"MHOCCUR","CRFVAROD":6,"CRFVERS":"V1.0_LIVE_30OCT2019_PW","CRFVISDU":[-1],"CRFVISDY":[-1],"CRFVISID":["10_V01"],"CRFVISIT":["Visit 01"],"CRFVISOD":[1],"HEIGHT":15.948,"ID":138,"ORDER":16,"PAGENUMBER":18,"SDTMDOM":["MH"],"SDTMTYPE":"IG","SDTMVAR":["MHOCCUR"],"WIDTH":314.568,"X":70.866,"Y":234.671},"location":{"x":70.866,"y":234.671,"width":314.568,"height":15.948},"position":{"x":387.43399999999997,"y":232.671,"width":72.151,"height":15.948},"domain":{"mh":{"id":"MH","label":"Medical History","variable":{"mhoccur":{"id":"MHOCCUR","label":"Medical History Occurrence","element":{"value":"MHOCCUR","type":"variable","position":{"x":390.43399999999997,"y":232.671,"width":71.151,"height":15.948},"identifier":{"form":"mh_vac_flu","page":18,"field":"mhoccur","record":138,"domain":"mh","variable":"mhoccur"},"style":{"color":"#FF0000","background-color":"#BFFFFF","bolder-style":"dash"}}}}}}}}},"mhstdat":{"id":"MHSTDAT","notsub":false,"noncol":false,"label":"Date","record":{"127":{"id":127,"raw":{"CDASHDOM":["MH"],"CDASHTYPE":"IG","CDASHVAR":"MHSTDAT","CLASS":"question","CRFCODELAB":null,"CRFDES":"Date","CRFDOM":"MH","CRFDS":"MH_VAC_FLU","CRFDSLAB":"History of Flu Diagnosis","CRFOD":17,"CRFVALUT":null,"CRFVAR":"MHSTDAT","CRFVAROD":7,"CRFVERS":"V1.0_LIVE_30OCT2019_PW","CRFVISDU":[-1],"CRFVISDY":[-1],"CRFVISID":["10_V01"],"CRFVISIT":["Visit 01"],"CRFVISOD":[1],"HEIGHT":15.744,"ID":127,"ORDER":4,"PAGENUMBER":18,"SDTMDOM":["MH"],"SDTMTYPE":"IG","SDTMVAR":["MHSTDTC"],"WIDTH":22.62,"X":70.866,"Y":553.671},"location":{"x":70.866,"y":553.671,"width":22.62,"height":15.744},"position":{"x":95.486,"y":551.671,"width":67.874,"height":15.744},"domain":{"mh":{"id":"MH","label":"Medical History","variable":{"mhstdtc":{"id":"MHSTDTC","label":"Start Date/Time of Medical History Event","element":{"value":"MHSTDTC","type":"variable","position":{"x":98.486,"y":551.671,"width":66.874,"height":15.744},"identifier":{"form":"mh_vac_flu","page":18,"field":"mhstdat","record":127,"domain":"mh","variable":"mhstdtc"},"style":{"color":"#FF0000","background-color":"#BFFFFF","bolder-style":"dash"}}}}}}},"133":{"id":133,"raw":{"CDASHDOM":["MH"],"CDASHTYPE":"IG","CDASHVAR":"MHSTDAT","CLASS":"question","CRFCODELAB":null,"CRFDES":"Date","CRFDOM":"MH","CRFDS":"MH_VAC_FLU","CRFDSLAB":"History of Flu Diagnosis","CRFOD":17,"CRFVALUT":null,"CRFVAR":"MHSTDAT","CRFVAROD":7,"CRFVERS":"V1.0_LIVE_30OCT2019_PW","CRFVISDU":[-1],"CRFVISDY":[-1],"CRFVISID":["10_V01"],"CRFVISIT":["Visit 01"],"CRFVISOD":[1],"HEIGHT":15.744,"ID":133,"ORDER":11,"PAGENUMBER":18,"SDTMDOM":["MH"],"SDTMTYPE":"IG","SDTMVAR":["MHSTDTC"],"WIDTH":22.62,"X":70.866,"Y":368.671},"location":{"x":70.866,"y":368.671,"width":22.62,"height":15.744},"position":{"x":95.486,"y":366.671,"width":67.874,"height":15.744},"domain":{"mh":{"id":"MH","label":"Medical History","variable":{"mhstdtc":{"id":"MHSTDTC","label":"Start Date/Time of Medical History Event","element":{"value":"MHSTDTC","type":"variable","position":{"x":98.486,"y":366.671,"width":66.874,"height":15.744},"identifier":{"form":"mh_vac_flu","page":18,"field":"mhstdat","record":133,"domain":"mh","variable":"mhstdtc"},"style":{"color":"#FF0000","background-color":"#BFFFFF","bolder-style":"dash"}}}}}}},"139":{"id":139,"raw":{"CDASHDOM":["MH"],"CDASHTYPE":"IG","CDASHVAR":"MHSTDAT","CLASS":"question","CRFCODELAB":null,"CRFDES":"Date","CRFDOM":"MH","CRFDS":"MH_VAC_FLU","CRFDSLAB":"History of Flu Diagnosis","CRFOD":17,"CRFVALUT":null,"CRFVAR":"MHSTDAT","CRFVAROD":7,"CRFVERS":"V1.0_LIVE_30OCT2019_PW","CRFVISDU":[-1],"CRFVISDY":[-1],"CRFVISID":["10_V01"],"CRFVISIT":["Visit 01"],"CRFVISOD":[1],"HEIGHT":15.744,"ID":139,"ORDER":18,"PAGENUMBER":18,"SDTMDOM":["MH"],"SDTMTYPE":"IG","SDTMVAR":["MHSTDTC"],"WIDTH":22.62,"X":70.866,"Y":183.671},"location":{"x":70.866,"y":183.671,"width":22.62,"height":15.744},"position":{"x":95.486,"y":181.671,"width":67.874,"height":15.744},"domain":{"mh":{"id":"MH","label":"Medical History","variable":{"mhstdtc":{"id":"MHSTDTC","label":"Start Date/Time of Medical History Event","element":{"value":"MHSTDTC","type":"variable","position":{"x":98.486,"y":181.671,"width":66.874,"height":15.744},"identifier":{"form":"mh_vac_flu","page":18,"field":"mhstdat","record":139,"domain":"mh","variable":"mhstdtc"},"style":{"color":"#FF0000","background-color":"#BFFFFF","bolder-style":"dash"}}}}}}}}},"mhterm1":{"id":"MHTERM1","notsub":false,"noncol":false,"label":"Specify Symptoms","record":{"128":{"id":128,"raw":{"CDASHDOM":["MH"],"CDASHTYPE":"SANOFI","CDASHVAR":"MHTERM1","CLASS":"question","CRFCODELAB":null,"CRFDES":"Specify Symptoms","CRFDOM":"MH","CRFDS":"MH_VAC_FLU","CRFDSLAB":"History of Flu Diagnosis","CRFOD":17,"CRFVALUT":null,"CRFVAR":"MHTERM1","CRFVAROD":8,"CRFVERS":"V1.0_LIVE_30OCT2019_PW","CRFVISDU":[-1],"CRFVISDY":[-1],"CRFVISID":["10_V01"],"CRFVISIT":["Visit 01"],"CRFVISOD":[1],"HEIGHT":15.744,"ID":128,"ORDER":5,"PAGENUMBER":18,"WIDTH":90.936,"X":70.866,"Y":536.671},"location":{"x":70.866,"y":536.671,"width":90.936,"height":15.744},"position":{"x":163.80200000000002,"y":534.671,"width":1,"height":15.744}},"134":{"id":134,"raw":{"CDASHDOM":["MH"],"CDASHTYPE":"SANOFI","CDASHVAR":"MHTERM1","CLASS":"question","CRFCODELAB":null,"CRFDES":"Specify Symptoms","CRFDOM":"MH","CRFDS":"MH_VAC_FLU","CRFDSLAB":"History of Flu Diagnosis","CRFOD":17,"CRFVALUT":null,"CRFVAR":"MHTERM1","CRFVAROD":8,"CRFVERS":"V1.0_LIVE_30OCT2019_PW","CRFVISDU":[-1],"CRFVISDY":[-1],"CRFVISID":["10_V01"],"CRFVISIT":["Visit 01"],"CRFVISOD":[1],"HEIGHT":15.744,"ID":134,"ORDER":12,"PAGENUMBER":18,"WIDTH":90.936,"X":70.866,"Y":351.671},"location":{"x":70.866,"y":351.671,"width":90.936,"height":15.744},"position":{"x":163.80200000000002,"y":349.671,"width":1,"height":15.744}},"140":{"id":140,"raw":{"CDASHDOM":["MH"],"CDASHTYPE":"SANOFI","CDASHVAR":"MHTERM1","CLASS":"question","CRFCODELAB":null,"CRFDES":"Specify Symptoms","CRFDOM":"MH","CRFDS":"MH_VAC_FLU","CRFDSLAB":"History of Flu Diagnosis","CRFOD":17,"CRFVALUT":null,"CRFVAR":"MHTERM1","CRFVAROD":8,"CRFVERS":"V1.0_LIVE_30OCT2019_PW","CRFVISDU":[-1],"CRFVISDY":[-1],"CRFVISID":["10_V01"],"CRFVISIT":["Visit 01"],"CRFVISOD":[1],"HEIGHT":15.744,"ID":140,"ORDER":19,"PAGENUMBER":18,"WIDTH":90.936,"X":70.866,"Y":166.671},"location":{"x":70.866,"y":166.671,"width":90.936,"height":15.744},"position":{"x":163.80200000000002,"y":164.671,"width":1,"height":15.744}}}},"mhpresp":{"id":"MHPRESP","notsub":false,"noncol":false,"label":"Pre-Specified?","record":{"129":{"id":129,"raw":{"CDASHDOM":["MH"],"CDASHTYPE":"IG","CDASHVAR":"MHPRESP","CLASS":"question","CRFCODE":["Y","N"],"CRFCODELAB":["Yes","No"],"CRFDES":"Pre-Specified?","CRFDIC":"NY_YN","CRFDOM":"MH","CRFDS":"MH_VAC_FLU","CRFDSLAB":"History of Flu Diagnosis","CRFOD":17,"CRFVAL":"Y","CRFVALUT":null,"CRFVAR":"MHPRESP","CRFVAROD":3,"CRFVERS":"V1.0_LIVE_30OCT2019_PW","CRFVISDU":[-1],"CRFVISDY":[-1],"CRFVISID":["10_V01"],"CRFVISIT":["Visit 01"],"CRFVISOD":[1],"HEIGHT":15.744,"ID":129,"NONCOL":true,"ORDER":6,"PAGENUMBER":18,"SDTMDOM":["MH"],"SDTMTYPE":"IG","SDTMVAR":["MHPRESP"],"WIDTH":70.56,"X":70.866,"Y":516.671},"location":{"x":70.866,"y":516.672,"width":70.56,"height":15.744},"position":{"x":143.426,"y":514.672,"width":68.781,"height":15.744},"domain":{"mh":{"id":"MH","label":"Medical History","variable":{"mhpresp":{"id":"MHPRESP","label":"Medical History Event Pre-Specified","element":{"value":"MHPRESP","type":"variable","position":{"x":146.426,"y":514.672,"width":67.781,"height":15.744},"identifier":{"form":"mh_vac_flu","page":18,"field":"mhpresp","record":129,"domain":"mh","variable":"mhpresp"},"style":{"color":"#FF0000","background-color":"#BFFFFF","bolder-style":"dash"}}}}}}},"135":{"id":135,"raw":{"CDASHDOM":["MH"],"CDASHTYPE":"IG","CDASHVAR":"MHPRESP","CLASS":"question","CRFCODE":["Y","N"],"CRFCODELAB":["Yes","No"],"CRFDES":"Pre-Specified?","CRFDIC":"NY_YN","CRFDOM":"MH","CRFDS":"MH_VAC_FLU","CRFDSLAB":"History of Flu Diagnosis","CRFOD":17,"CRFVAL":"Y","CRFVALUT":null,"CRFVAR":"MHPRESP","CRFVAROD":3,"CRFVERS":"V1.0_LIVE_30OCT2019_PW","CRFVISDU":[-1],"CRFVISDY":[-1],"CRFVISID":["10_V01"],"CRFVISIT":["Visit 01"],"CRFVISOD":[1],"HEIGHT":15.744,"ID":135,"NONCOL":true,"ORDER":13,"PAGENUMBER":18,"SDTMDOM":["MH"],"SDTMTYPE":"IG","SDTMVAR":["MHPRESP"],"WIDTH":70.56,"X":70.866,"Y":331.671},"location":{"x":70.866,"y":331.671,"width":70.56,"height":15.744},"position":{"x":143.426,"y":329.671,"width":68.781,"height":15.744},"domain":{"mh":{"id":"MH","label":"Medical History","variable":{"mhpresp":{"id":"MHPRESP","label":"Medical History Event Pre-Specified","element":{"value":"MHPRESP","type":"variable","position":{"x":146.426,"y":329.671,"width":67.781,"height":15.744},"identifier":{"form":"mh_vac_flu","page":18,"field":"mhpresp","record":135,"domain":"mh","variable":"mhpresp"},"style":{"color":"#FF0000","background-color":"#BFFFFF","bolder-style":"dash"}}}}}}}}},"mhterm":{"id":"MHTERM","notsub":false,"noncol":false,"label":"Type of Infection","record":{"130":{"id":130,"raw":{"CDASHDOM":["MH"],"CDASHTYPE":"IG","CDASHVAR":"MHTERM","CLASS":"question","CRFCODELAB":null,"CRFDES":"Type of Infection","CRFDOM":"MH","CRFDS":"MH_VAC_FLU","CRFDSLAB":"History of Flu Diagnosis","CRFOD":17,"CRFVAL":" LABORATORY-CONFIRMED INFLUENZA ILLNESS","CRFVALUT":null,"CRFVAR":"MHTERM","CRFVAROD":4,"CRFVERS":"V1.0_LIVE_30OCT2019_PW","CRFVISDU":[-1],"CRFVISDY":[-1],"CRFVISID":["10_V01"],"CRFVISIT":["Visit 01"],"CRFVISOD":[1],"HEIGHT":15.744,"ID":130,"NONCOL":true,"ORDER":7,"PAGENUMBER":18,"SDTMDOM":["MH"],"SDTMTYPE":"IG","SDTMVAR":["MHTERM"],"WIDTH":83.904,"X":70.866,"Y":481.671},"location":{"x":70.866,"y":481.671,"width":83.904,"height":15.744},"position":{"x":156.76999999999998,"y":479.671,"width":61.394,"height":15.744},"domain":{"mh":{"id":"MH","label":"Medical History","variable":{"mhterm":{"id":"MHTERM","label":"Reported Term for the Medical History","element":{"value":"MHTERM","type":"variable","position":{"x":159.76999999999998,"y":479.671,"width":60.394,"height":15.744},"identifier":{"form":"mh_vac_flu","page":18,"field":"mhterm","record":130,"domain":"mh","variable":"mhterm"},"style":{"color":"#FF0000","background-color":"#BFFFFF","bolder-style":"dash"}}}}}}},"136":{"id":136,"raw":{"CDASHDOM":["MH"],"CDASHTYPE":"IG","CDASHVAR":"MHTERM","CLASS":"question","CRFCODELAB":null,"CRFDES":"Type of Infection","CRFDOM":"MH","CRFDS":"MH_VAC_FLU","CRFDSLAB":"History of Flu Diagnosis","CRFOD":17,"CRFVAL":" LABORATORY-CONFIRMED INFLUENZA ILLNESS","CRFVALUT":null,"CRFVAR":"MHTERM","CRFVAROD":4,"CRFVERS":"V1.0_LIVE_30OCT2019_PW","CRFVISDU":[-1],"CRFVISDY":[-1],"CRFVISID":["10_V01"],"CRFVISIT":["Visit 01"],"CRFVISOD":[1],"HEIGHT":15.744,"ID":136,"NONCOL":true,"ORDER":14,"PAGENUMBER":18,"SDTMDOM":["MH"],"SDTMTYPE":"IG","SDTMVAR":["MHTERM"],"WIDTH":83.904,"X":70.866,"Y":296.671},"location":{"x":70.866,"y":296.671,"width":83.904,"height":15.744},"position":{"x":156.76999999999998,"y":294.671,"width":61.394,"height":15.744},"domain":{"mh":{"id":"MH","label":"Medical History","variable":{"mhterm":{"id":"MHTERM","label":"Reported Term for the Medical History","element":{"value":"MHTERM","type":"variable","position":{"x":159.76999999999998,"y":294.671,"width":60.394,"height":15.744},"identifier":{"form":"mh_vac_flu","page":18,"field":"mhterm","record":136,"domain":"mh","variable":"mhterm"},"style":{"color":"#FF0000","background-color":"#BFFFFF","bolder-style":"dash"}}}}}}}}}}}}},"cd_ser":{"id":"CD_SER","start":19,"end":null,"notsub":false,"header":{},"page":{"19":{"id":19,"notsub":false,"noncol":false,"position":{"x":70,"y":769,"width":0,"height":18},"field":{"cdcat":{"id":"CDCAT","notsub":false,"noncol":false,"label":"Central Data Category","record":{"141":{"id":141,"raw":{"CDASHDOM":["CD"],"CDASHTYPE":"SANOFI","CDASHVAR":"CDCAT","CLASS":"question","CRFCODE":["APPADL","BANKING","BIOMARKERS","CELL-MEDIATED IMMUNITY","CENTRAL IMAGING","CLAMP","DIAGNOSTIC","DRUG METABOLISM ENZYME","ECG TELEMETRY","ECHOCARDIOGRAM","ELECTRONIC PATIENT-REPORT OUTCOME SYSTEM","FUNCTIONAL TEST","GENETIC VARIATION","HEFH GENOTYPING","HOLTER","IW-SP","NASAL MUCOSA BRUSHING FOR RNA AND CYTOLOGY","NASAL SECRETION SAMPLING","NASAL SWABS FOR MICROBIOME","OPHTHALMOLOGICAL TEST","PQAT","PHARMACODYNAMICS","PHARMACOGENETIC ANALYSIS","PHARMACOGENETIC BANKING","PSYCHOMETRIC TEST","PULMONARY FUNCTION TESTS","SEROLOGY","TUMOR BIOPSY","VIROLOGY","VAS","WRSM"],"CRFCODELAB":["Ability to Perform Physical Activities of Daily Living Questionnaire (APPADL)","Banking","Biomarkers","Cell-Mediated Immunity","Central Imaging","Clamp","Diagnostic","Drug Metabolism Enzyme","ECG Telemetry","Echocardiography","Electronic Patient-Reported Outcome System (ePRO)","Functional Test","Genetic Variation","HeFH Genotyping","Holter","Impact of Weight on Self Perceptions (IW-SP)","Nasal Mucosa Brushing for RNA and Cytology","Nasal Secretion Sampling","Nasal Swabs for Microbiome","Ophthalmological Test","Patient Qualitative Assessment of Treatment (PQAT)","Pharmacodynamics","Pharmacogenetic Analysis","Pharmacogenetic Banking","Psychometric Test","Pulmonary Function Tests","Serology","Tumor Biopsy","Virology","Visual Analog Scale","Weight-Related Symptom Measure (WRSM)"],"CRFDES":"Central Data Category","CRFDIC":"CDTYP","CRFDOM":"CD","CRFDS":"CD_SER","CRFDSLAB":"Blood Sampling"