{"AUTHOR":"Ye, Jianfeng2 /CN","CREATED":"20240816T103530","METADATA":{"CompMethod":[{"ComputationalMethodOID":"VISNUM","MethodName":"Derivation method for VISITNUM","MethodText":"Data Reviewer's Guide for details regarding the derivation of this variable.","MethodType":"Computation"},{"ComputationalMethodOID":"REFDAY","MethodName":"Algorithm to derive all Study Day variables","MethodText":"--DY is computed as: --DTC - RFSTDTC + 1 if --DTC is on or after RFSTDTC, --DTC - RFSTDTC if --DTC precedes RFSTDTC.","MethodType":"Computation"},{"ComputationalMethodOID":"SEQNUM","MethodName":"Algorithm to derive all Sequence Numbers","MethodText":"--SEQ is computed as: Within all records with the same USUBJID, assigned as 1 for the first record and incremented by 1 for each subsequent record (applied to dataset sorted by key variables). Reset to 1 for each new USUBJID.","MethodType":"Computation"},{"ComputationalMethodOID":"USUBJ","MethodName":"Derivation method for USUBJID","MethodText":"Concatenation of protocol number (without character prefix) country, center and subject with leading zeroes.","MethodType":"Computation"},{"ComputationalMethodOID":"SUBJ","MethodName":"Derivation method for SUBJID","MethodText":"Internally derived by the electronic data collection software.","MethodType":"Computation"}],"DatasetMetadata":[{"Class":"TRIAL DESIGN","DatasetDescription":"Trial Arms","DatasetName":"TA","DatasetStructure":"One record per planned Element per Arm","DomainCode":"TA","ISReferenceData":"Yes","KeyVariables":"STUDYID, ARMCD, TAETORD","Purpose":"Tabulation","RelativeOrder":1,"Repeating":"No","StandardID":"STD.SDTMIG-3.3"},{"Class":"TRIAL DESIGN","DatasetDescription":"Trial Disease Assessments","DatasetName":"TD","DatasetStructure":"One record per planned constant assessment period","DomainCode":"TD","ISReferenceData":"Yes","KeyVariables":"STUDYID, TDORDER","Purpose":"Tabulation","RelativeOrder":2,"Repeating":"No","StandardID":"STD.SDTMIG-3.3"},{"Class":"TRIAL DESIGN","DatasetDescription":"Trial Elements","DatasetName":"TE","DatasetStructure":"One record per planned Element","DomainCode":"TE","ISReferenceData":"Yes","KeyVariables":"STUDYID, ETCD","Purpose":"Tabulation","RelativeOrder":3,"Repeating":"No","StandardID":"STD.SDTMIG-3.3"},{"Class":"TRIAL DESIGN","DatasetDescription":"Trial Inclusion/Exclusion Criteria","DatasetName":"TI","DatasetStructure":"One record per I/E criterion","DomainCode":"TI","ISReferenceData":"Yes","KeyVariables":"STUDYID, IETESTCD","Purpose":"Tabulation","RelativeOrder":4,"Repeating":"No","StandardID":"STD.SDTMIG-3.3"},{"Class":"TRIAL DESIGN","DatasetDescription":"Trial Summary Information","DatasetName":"TS","DatasetStructure":"One record per trial summary parameter value","DomainCode":"TS","ISReferenceData":"Yes","KeyVariables":"STUDYID, TSPARMCD, TSSEQ","Purpose":"Tabulation","RelativeOrder":5,"Repeating":"No","StandardID":"STD.SDTMIG-3.3"},{"Class":"TRIAL DESIGN","DatasetDescription":"Trial Visits","DatasetName":"TV","DatasetStructure":"One record per planned Visit per Arm","DomainCode":"TV","ISReferenceData":"Yes","KeyVariables":"STUDYID, ARM, VISIT","Purpose":"Tabulation","RelativeOrder":6,"Repeating":"No","StandardID":"STD.SDTMIG-3.3"},{"Class":"SPECIAL PURPOSE","DatasetDescription":"Comments","DatasetName":"CO","DatasetStructure":"One record per comment per subject","DomainCode":"CO","ISReferenceData":"No","KeyVariables":"STUDYID, USUBJID, IDVAR, COREF, CODTC","Purpose":"Tabulation","RelativeOrder":7,"Repeating":"Yes","StandardID":"STD.SDTMIG-3.3"},{"Class":"SPECIAL PURPOSE","DatasetDescription":"Demographics","DatasetName":"DM","DatasetStructure":"One record per subject","DomainCode":"DM","ISReferenceData":"No","KeyVariables":"STUDYID, USUBJID","Purpose":"Tabulation","RelativeOrder":8,"Repeating":"No","StandardID":"STD.SDTMIG-3.3"},{"Class":"SPECIAL PURPOSE","DatasetDescription":"Subject Elements","DatasetName":"SE","DatasetStructure":"One record per actual Element per subject","DomainCode":"SE","ISReferenceData":"No","KeyVariables":"STUDYID, USUBJID, ETCD, SESTDTC","Purpose":"Tabulation","RelativeOrder":9,"Repeating":"Yes","StandardID":"STD.SDTMIG-3.3"},{"Class":"SPECIAL PURPOSE","DatasetDescription":"Subject Visits","DatasetName":"SV","DatasetStructure":"One record per subject per actual visit","DomainCode":"SV","ISReferenceData":"No","KeyVariables":"STUDYID, USUBJID, VISITNUM","Purpose":"Tabulation","RelativeOrder":10,"Repeating":"Yes","StandardID":"STD.SDTMIG-3.3"},{"Class":"SPECIAL PURPOSE","DatasetDescription":"Demographics for Multiple Participations","DatasetName":"XD","DatasetStructure":"One record per subject per additional participation","DomainCode":"XD","ISReferenceData":"No","IsNonStandard":"Yes","KeyVariables":"STUDYID, USUBJID, SUBJID","Purpose":"Tabulation","RelativeOrder":11,"Repeating":"Yes"},{"Class":"INTERVENTIONS","DatasetDescription":"Procedure Agents","DatasetName":"AG","DatasetStructure":"One record per recorded intervention occurrence per subject","DomainCode":"AG","ISReferenceData":"No","KeyVariables":"STUDYID, USUBJID, AGTRT, AGSTDTC","Purpose":"Tabulation","RelativeOrder":12,"Repeating":"Yes","StandardID":"STD.SDTMIG-3.3"},{"Class":"INTERVENTIONS","DatasetDescription":"Associated Persons Concomit./Prior Meds","DatasetName":"APCM","DatasetStructure":"One record per recorded medication occurrence or constant-dosing interval per Related Subject","DomainCode":"APCM","ISReferenceData":"No","KeyVariables":"STUDYID, RSUBJID, APID, CMTRT, CMSTDTC","Purpose":"Tabulation","RelativeOrder":13,"Repeating":"Yes","StandardID":"STD.SDTMIG-AP-1.0"},{"Class":"INTERVENTIONS","DatasetDescription":"Concomitant/Prior Medications","DatasetName":"CM","DatasetStructure":"One record per recorded intervention occurrence or constant-dosing interval per subject","DomainCode":"CM","ISReferenceData":"No","KeyVariables":"STUDYID, USUBJID, CMTRT, CMSTDTC","Purpose":"Tabulation","RelativeOrder":14,"Repeating":"Yes","StandardID":"STD.SDTMIG-3.3"},{"Class":"INTERVENTIONS","DatasetDescription":"Device Exposure","DatasetName":"DX","DatasetStructure":"One record per recorded intervention occurrence or constant treatment interval per subject","DomainCode":"DX","ISReferenceData":"No","KeyVariables":"STUDYID, USUBJID, SPDEVID, DXTRT","Purpose":"Tabulation","RelativeOrder":15,"Repeating":"Yes","StandardID":"STD.SDTMIG-MD-1.1"},{"Class":"INTERVENTIONS","DatasetDescription":"Exposure as Collected","DatasetName":"EC","DatasetStructure":"One record per protocol-specified study treatment, collected-dosing interval, per subject, per mood","DomainCode":"EC","ISReferenceData":"No","KeyVariables":"STUDYID, USUBJID, ECTRT, ECSTDTC, ECMOOD","Purpose":"Tabulation","RelativeOrder":16,"Repeating":"Yes","StandardID":"STD.SDTMIG-3.3"},{"Class":"INTERVENTIONS","DatasetDescription":"Exposure","DatasetName":"EX","DatasetStructure":"One record per protocol-specified study treatment, constant-dosing interval, per subject","DomainCode":"EX","ISReferenceData":"No","KeyVariables":"STUDYID, USUBJID, EXTRT, EXSTDTC","Purpose":"Tabulation","RelativeOrder":17,"Repeating":"Yes","StandardID":"STD.SDTMIG-3.3"},{"Class":"INTERVENTIONS","DatasetDescription":"Meal Data","DatasetName":"ML","DatasetStructure":"One record per food product occurrence or constant intake interval per subject","DomainCode":"ML","ISReferenceData":"No","KeyVariables":"STUDYID, USUBJID, MLTRT, MLSTDTC","Purpose":"Tabulation","RelativeOrder":18,"Repeating":"Yes","StandardID":"STD.SDTMIG-3.3"},{"Class":"INTERVENTIONS","DatasetDescription":"Procedures","DatasetName":"PR","DatasetStructure":"One record per recorded procedure per occurrence per subject","DomainCode":"PR","ISReferenceData":"No","KeyVariables":"STUDYID, USUBJID, PRTRT, PRSTDTC","Purpose":"Tabulation","RelativeOrder":19,"Repeating":"Yes","StandardID":"STD.SDTMIG-3.3"},{"Class":"INTERVENTIONS","DatasetDescription":"Substance Use","DatasetName":"SU","DatasetStructure":"One record per substance type per reported occurrence per subject","DomainCode":"SU","ISReferenceData":"No","KeyVariables":"STUDYID, USUBJID, SUTRT, SUSTDTC","Purpose":"Tabulation","RelativeOrder":20,"Repeating":"Yes","StandardID":"STD.SDTMIG-3.3"},{"Class":"EVENTS","DatasetDescription":"Adverse Events","DatasetName":"AE","DatasetStructure":"One record per adverse event per subject","DomainCode":"AE","ISReferenceData":"No","KeyVariables":"STUDYID, USUBJID, AEDECOD, AESTDTC","Purpose":"Tabulation","RelativeOrder":21,"Repeating":"Yes","StandardID":"STD.SDTMIG-3.3"},{"Class":"EVENTS","DatasetDescription":"Associated Persons Adverse Events","DatasetName":"APAE","DatasetStructure":"One record per adverse event per Related Subject","DomainCode":"APAE","ISReferenceData":"No","KeyVariables":"STUDYID, RSUBJID, APID, AEDECOD, AESTDTC","Purpose":"Tabulation","RelativeOrder":22,"Repeating":"Yes","StandardID":"STD.SDTMIG-AP-1.0"},{"Class":"EVENTS","DatasetDescription":"Associated Persons Medical History","DatasetName":"APMH","DatasetStructure":"One record per medical history event per Related Subject","DomainCode":"APMH","ISReferenceData":"No","KeyVariables":"STUDYID, RSUBJID, APID, MHDECOD","Purpose":"Tabulation","RelativeOrder":23,"Repeating":"Yes","StandardID":"STD.SDTMIG-AP-1.0"},{"Class":"EVENTS","DatasetDescription":"Biospecimen Events","DatasetName":"BE","DatasetStructure":"One record per instance per biospecimen event per biospecimen identifier per subject","DomainCode":"BE","ISReferenceData":"No","KeyVariables":"STUDYID, USUBJID, BEREFID, BETERM, BESTDTC","Purpose":"Tabulation","RelativeOrder":24,"Repeating":"Yes","StandardID":"STD.SDTMIG-3.4"},{"Class":"EVENTS","DatasetDescription":"Clinical Events","DatasetName":"CE","DatasetStructure":"One record per event per subject","DomainCode":"CE","ISReferenceData":"No","KeyVariables":"STUDYID, USUBJID, CETERM, CESTDTC","Purpose":"Tabulation","RelativeOrder":25,"Repeating":"Yes","StandardID":"STD.SDTMIG-3.3"},{"Class":"EVENTS","DatasetDescription":"Device Events","DatasetName":"DE","DatasetStructure":"One record per event per device","DomainCode":"DE","ISReferenceData":"No","KeyVariables":"STUDYID, USUBJID, DETERM","Purpose":"Tabulation","RelativeOrder":26,"Repeating":"Yes","StandardID":"STD.SDTMIG-MD-1.1"},{"Class":"EVENTS","DatasetDescription":"Disposition","DatasetName":"DS","DatasetStructure":"One record per disposition status or protocol milestone per subject","DomainCode":"DS","ISReferenceData":"No","KeyVariables":"STUDYID, USUBJID, DSDECOD, DSSTDTC","Purpose":"Tabulation","RelativeOrder":27,"Repeating":"Yes","StandardID":"STD.SDTMIG-3.3"},{"Class":"EVENTS","DatasetDescription":"Device Tracking and Disposition","DatasetName":"DT","DatasetStructure":"One record per device tracking event","DomainCode":"DT","ISReferenceData":"Yes","KeyVariables":"STUDYID, SPDEVID, DTTERM","Purpose":"Tabulation","RelativeOrder":28,"Repeating":"No","StandardID":"STD.SDTMIG-MD-1.1"},{"Class":"EVENTS","DatasetDescription":"Protocol Deviations","DatasetName":"DV","DatasetStructure":"One record per protocol deviation per subject","DomainCode":"DV","ISReferenceData":"No","KeyVariables":"STUDYID, USUBJID, DVTERM, DVSTDTC","Purpose":"Tabulation","RelativeOrder":29,"Repeating":"Yes","StandardID":"STD.SDTMIG-3.3"},{"Class":"EVENTS","DatasetDescription":"Healthcare Encounters","DatasetName":"HO","DatasetStructure":"One record per healthcare encounter per subject","DomainCode":"HO","ISReferenceData":"No","KeyVariables":"STUDYID, USUBJID, HOTERM, HOSTDTC","Purpose":"Tabulation","RelativeOrder":30,"Repeating":"Yes","StandardID":"STD.SDTMIG-3.3"},{"Class":"EVENTS","DatasetDescription":"Medical History","DatasetName":"MH","DatasetStructure":"One record per medical history event per subject","DomainCode":"MH","ISReferenceData":"No","KeyVariables":"STUDYID, USUBJID, MHDECOD","Purpose":"Tabulation","RelativeOrder":31,"Repeating":"Yes","StandardID":"STD.SDTMIG-3.3"},{"Class":"FINDINGS","DatasetDescription":"Associated Persons Characteristics","DatasetName":"APSC","DatasetStructure":"One record per characteristic per Related Subject","DomainCode":"APSC","ISReferenceData":"No","KeyVariables":"STUDYID, RSUBJID, APID, SCTESTCD","Purpose":"Tabulation","RelativeOrder":32,"Repeating":"Yes","StandardID":"STD.SDTMIG-AP-1.0"},{"Class":"FINDINGS","DatasetDescription":"Contraindications","DatasetName":"CI","DatasetStructure":"One record per met contraindication per subject","DomainCode":"CI","ISReferenceData":"No","IsNonStandard":"Yes","KeyVariables":"STUDYID, USUBJID, CITESTCD","Purpose":"Tabulation","RelativeOrder":33,"Repeating":"Yes"},{"Class":"FINDINGS","DatasetDescription":"Cardiovascular System Findings","DatasetName":"CV","DatasetStructure":"One record per finding or result per time point per visit per subject","DomainCode":"CV","ISReferenceData":"No","KeyVariables":"STUDYID, USUBJID, VISITNUM, CVTESTCD, CVTPTREF, CVTPTNUM","Purpose":"Tabulation","RelativeOrder":34,"Repeating":"Yes","StandardID":"STD.SDTMIG-3.3"},{"Class":"FINDINGS","DatasetDescription":"Death Details","DatasetName":"DD","DatasetStructure":"One record per finding per subject","DomainCode":"DD","ISReferenceData":"No","KeyVariables":"STUDYID, USUBJID, DDTESTCD, DDDTC","Purpose":"Tabulation","RelativeOrder":35,"Repeating":"Yes","StandardID":"STD.SDTMIG-3.3"},{"Class":"FINDINGS","DatasetDescription":"Device Properties","DatasetName":"DO","DatasetStructure":"One record per property per device","DomainCode":"DO","ISReferenceData":"Yes","KeyVariables":"STUDYID, SPDEVID, DOTESTCD","Purpose":"Tabulation","RelativeOrder":36,"Repeating":"No","StandardID":"STD.SDTMIG-MD-1.1"},{"Class":"FINDINGS","DatasetDescription":"Device-In-Use","DatasetName":"DU","DatasetStructure":"One record per property or setting per time point per visit or test date per subject","DomainCode":"DU","ISReferenceData":"No","KeyVariables":"STUDYID, USUBJID, SPDEVID, DUTESTCD, VISITNUM","Purpose":"Tabulation","RelativeOrder":37,"Repeating":"Yes","StandardID":"STD.SDTMIG-MD-1.1"},{"Class":"FINDINGS","DatasetDescription":"ECG Test Results","DatasetName":"EG","DatasetStructure":"One record per ECG observation per replicate per time point or one record per ECG observation per beat per visit per subject","DomainCode":"EG","ISReferenceData":"No","KeyVariables":"STUDYID, USUBJID, EGTESTCD, VISITNUM, EGTPTREF, EGTPTNUM","Purpose":"Tabulation","RelativeOrder":38,"Repeating":"Yes","StandardID":"STD.SDTMIG-3.3"},{"Class":"FINDINGS","DatasetDescription":"Functional Tests","DatasetName":"FT","DatasetStructure":"One record per Functional Test finding per time point per visit per subject","DomainCode":"FT","ISReferenceData":"No","KeyVariables":"STUDYID, USUBJID, FTTESTCD, VISITNUM, FTTPTREF, FTTPTNUM","Purpose":"Tabulation","RelativeOrder":39,"Repeating":"Yes","StandardID":"STD.SDTMIG-3.3"},{"Class":"FINDINGS","DatasetDescription":"Functional Tests-FT25","DatasetName":"FT25","DatasetStructure":"One record per Functional Test finding per time point per visit per subject","DomainCode":"FT","ISReferenceData":"No","KeyVariables":"STUDYID, USUBJID, FTTESTCD, VISITNUM, FTTPTREF, FTTPTNUM","Purpose":"Tabulation","RelativeOrder":40,"Repeating":"Yes","StandardID":"STD.SDTMIG-3.3"},{"Class":"FINDINGS","DatasetDescription":"Functional Tests-FT6M","DatasetName":"FT6M","DatasetStructure":"One record per Functional Test finding per time point per visit per subject","DomainCode":"FT","ISReferenceData":"No","KeyVariables":"STUDYID, USUBJID, FTTESTCD, VISITNUM, FTTPTREF, FTTPTNUM","Purpose":"Tabulation","RelativeOrder":41,"Repeating":"Yes","StandardID":"STD.SDTMIG-3.3"},{"Class":"FINDINGS","DatasetDescription":"Functional Tests-FTBV","DatasetName":"FTBV","DatasetStructure":"One record per Functional Test finding per time point per visit per subject","DomainCode":"FT","ISReferenceData":"No","KeyVariables":"STUDYID, USUBJID, FTTESTCD, VISITNUM, FTTPTREF, FTTPTNUM","Purpose":"Tabulation","RelativeOrder":42,"Repeating":"Yes","StandardID":"STD.SDTMIG-3.3"},{"Class":"FINDINGS","DatasetDescription":"Functional Tests-FTMO","DatasetName":"FTMO","DatasetStructure":"One record per Functional Test finding per time point per visit per subject","DomainCode":"FT","ISReferenceData":"No","KeyVariables":"STUDYID, USUBJID, FTTESTCD, VISITNUM, FTTPTREF, FTTPTNUM","Purpose":"Tabulation","RelativeOrder":43,"Repeating":"Yes","StandardID":"STD.SDTMIG-3.3"},{"Class":"FINDINGS","DatasetDescription":"Functional Tests-FTNH","DatasetName":"FTNH","DatasetStructure":"One record per Functional Test finding per time point per visit per subject","DomainCode":"FT","ISReferenceData":"No","KeyVariables":"STUDYID, USUBJID, FTTESTCD, VISITNUM, FTTPTREF, FTTPTNUM","Purpose":"Tabulation","RelativeOrder":44,"Repeating":"Yes","StandardID":"STD.SDTMIG-3.3"},{"Class":"FINDINGS","DatasetDescription":"Functional Tests-FTPR","DatasetName":"FTPR","DatasetStructure":"One record per Functional Test finding per time point per visit per subject","DomainCode":"FT","ISReferenceData":"No","KeyVariables":"STUDYID, USUBJID, FTTESTCD, VISITNUM, FTTPTREF, FTTPTNUM","Purpose":"Tabulation","RelativeOrder":45,"Repeating":"Yes","StandardID":"STD.SDTMIG-3.3"},{"Class":"FINDINGS","DatasetDescription":"Functional Tests-FTSD","DatasetName":"FTSD","DatasetStructure":"One record per Functional Test finding per time point per visit per subject","DomainCode":"FT","ISReferenceData":"No","KeyVariables":"STUDYID, USUBJID, FTTESTCD, VISITNUM, FTTPTREF, FTTPTNUM","Purpose":"Tabulation","RelativeOrder":46,"Repeating":"Yes","StandardID":"STD.SDTMIG-3.3"},{"Class":"FINDINGS","DatasetDescription":"Functional Tests-FTTM","DatasetName":"FTTM","DatasetStructure":"One record per Functional Test finding per time point per visit per subject","DomainCode":"FT","ISReferenceData":"No","KeyVariables":"STUDYID, USUBJID, FTTESTCD, VISITNUM, FTTPTREF, FTTPTNUM","Purpose":"Tabulation","RelativeOrder":47,"Repeating":"Yes","StandardID":"STD.SDTMIG-3.3"},{"Class":"FINDINGS","DatasetDescription":"Inclusion/Exclusion Criteria Not Met","DatasetName":"IE","DatasetStructure":"One record per inclusion/exclusion criterion not met per subject","DomainCode":"IE","ISReferenceData":"No","KeyVariables":"STUDYID, USUBJID, IETESTCD","Purpose":"Tabulation","RelativeOrder":48,"Repeating":"Yes","StandardID":"STD.SDTMIG-3.3"},{"Class":"FINDINGS","DatasetDescription":"Immunogenicity Specimen Assessments","DatasetName":"IS","DatasetStructure":"One record per test per visit per subject","DomainCode":"IS","ISReferenceData":"No","KeyVariables":"STUDYID, USUBJID, ISTESTCD, VISITNUM","Purpose":"Tabulation","RelativeOrder":49,"Repeating":"Yes","StandardID":"STD.SDTMIG-3.3"},{"Class":"FINDINGS","DatasetDescription":"Laboratory Test Results","DatasetName":"LB","DatasetStructure":"One record per lab test per time point per visit per subject","DomainCode":"LB","ISReferenceData":"No","KeyVariables":"STUDYID, USUBJID, LBTESTCD, LBSPEC, VISITNUM, LBTPTREF, LBTPTNUM","Purpose":"Tabulation","RelativeOrder":50,"Repeating":"Yes","StandardID":"STD.SDTMIG-3.3"},{"Class":"FINDINGS","DatasetDescription":"Laboratory Test Results Conversions","DatasetName":"LBUS","DatasetStructure":"One record per lab test per time point per visit per subject","DomainCode":"LBUS","ISReferenceData":"No","IsNonStandard":"Yes","KeyVariables":"STUDYID, USUBJID, LBDTC, VISITNUM, LBTESTCD, LBMETHOD, LBSPEC","Purpose":"Tabulation","RelativeOrder":51,"Repeating":"Yes"},{"Class":"FINDINGS","DatasetDescription":"Microbiology Specimen","DatasetName":"MB","DatasetStructure":"One record per microbiology specimen finding per time point per visit per subject","DomainCode":"MB","ISReferenceData":"No","KeyVariables":"STUDYID, USUBJID, MBTESTCD, VISITNUM, MBTPTREF, MBTPTNUM","Purpose":"Tabulation","RelativeOrder":52,"Repeating":"Yes","StandardID":"STD.SDTMIG-3.3"},{"Class":"FINDINGS","DatasetDescription":"Microscopic Findings","DatasetName":"MI","DatasetStructure":"One record per finding per specimen per subject","DomainCode":"MI","ISReferenceData":"No","KeyVariables":"STUDYID, USUBJID, MISPEC, MITESTCD","Purpose":"Tabulation","RelativeOrder":53,"Repeating":"Yes","StandardID":"STD.SDTMIG-3.3"},{"Class":"FINDINGS","DatasetDescription":"Musculoskeletal System Findings","DatasetName":"MK","DatasetStructure":"One record per assessment per visit per subject","DomainCode":"MK","ISReferenceData":"No","KeyVariables":"STUDYID, USUBJID, VISITNUM, MKTESTCD, MKLOC, MKLAT","Purpose":"Tabulation","RelativeOrder":54,"Repeating":"Yes","StandardID":"STD.SDTMIG-3.3"},{"Class":"FINDINGS","DatasetDescription":"Morphology","DatasetName":"MO","DatasetStructure":"One record per Morphology finding per location per time point per visit per subject","DomainCode":"MO","ISReferenceData":"No","KeyVariables":"STUDYID, USUBJID, VISITNUM, MOTESTCD, MOLOC, MOLAT","Purpose":"Tabulation","RelativeOrder":55,"Repeating":"Yes","StandardID":"STD.SDTMIG-3.3"},{"Class":"FINDINGS","DatasetDescription":"Nervous System Findings","DatasetName":"NV","DatasetStructure":"One record per finding per location per time point per visit per subject","DomainCode":"NV","ISReferenceData":"No","KeyVariables":"STUDYID, USUBJID, VISITNUM, NVTPTNUM, NVLOC, NVTESTCD","Purpose":"Tabulation","RelativeOrder":56,"Repeating":"Yes","StandardID":"STD.SDTMIG-3.3"},{"Class":"FINDINGS","DatasetDescription":"Ophthalmic Examinations","DatasetName":"OE","DatasetStructure":"One record per ophthalmic finding per method per location, per time point per visit per subject","DomainCode":"OE","ISReferenceData":"No","KeyVariables":"STUDYID, USUBJID, FOCID, OETESTCD, OETSTDTL, OEMETHOD, OELOC, OELAT, OEDIR, VISITNUM, OEDTC, OETPTREF, OETPTNUM, OEREPNUM","Purpose":"Tabulation","RelativeOrder":57,"Repeating":"Yes","StandardID":"STD.SDTMIG-3.3"},{"Class":"FINDINGS","DatasetDescription":"Pharmacokinetics Concentrations","DatasetName":"PC","DatasetStructure":"One record per sample characteristic or time-point concentration per reference time point or per analyte per subject","DomainCode":"PC","ISReferenceData":"No","KeyVariables":"STUDYID, USUBJID, PCTESTCD, VISITNUM, PCTPTREF, PCTPTNUM","Purpose":"Tabulation","RelativeOrder":58,"Repeating":"Yes","StandardID":"STD.SDTMIG-3.3"},{"Class":"FINDINGS","DatasetDescription":"Physical Examination","DatasetName":"PE","DatasetStructure":"One record per body system or abnormality per visit per subject","DomainCode":"PE","ISReferenceData":"No","KeyVariables":"STUDYID, USUBJID, PETESTCD, VISITNUM","Purpose":"Tabulation","RelativeOrder":59,"Repeating":"Yes","StandardID":"STD.SDTMIG-3.3"},{"Class":"FINDINGS","DatasetDescription":"Pharmacogenomics/ Genetics Findings","DatasetName":"PF","DatasetStructure":"One record per finding per observation per biospecimen per subject","DomainCode":"PF","ISReferenceData":"No","IsNonStandard":"Yes","KeyVariables":"STUDYID, USUBJID, PFREFID, PFTESTCD, PFGENRI, PFSTRESC","Purpose":"Tabulation","RelativeOrder":60,"Repeating":"Yes"},{"Class":"FINDINGS","DatasetDescription":"Pharmacokinetics Parameters","DatasetName":"PP","DatasetStructure":"One record per PK parameter per time-concentration profile per modeling method per subject","DomainCode":"PP","ISReferenceData":"No","KeyVariables":"STUDYID, USUBJID, PPTESTCD, PPCAT, VISITNUM, PPTPTREF","Purpose":"Tabulation","RelativeOrder":61,"Repeating":"Yes","StandardID":"STD.SDTMIG-3.3"},{"Class":"FINDINGS","DatasetDescription":"Questionnaires","DatasetName":"QS","DatasetStructure":"One record per questionnaire per question per time point per visit per subject","DomainCode":"QS","ISReferenceData":"No","KeyVariables":"STUDYID, USUBJID, QSCAT, QSSCAT, VISITNUM, QSTESTCD","Purpose":"Tabulation","RelativeOrder":62,"Repeating":"Yes","StandardID":"STD.SDTMIG-3.3"},{"Class":"FINDINGS","DatasetDescription":"Questionnaires-QS3L","DatasetName":"QS3L","DatasetStructure":"One record per questionnaire per question per time point per visit per subject","DomainCode":"QS","ISReferenceData":"No","KeyVariables":"STUDYID, USUBJID, QSCAT, VISITNUM, QSTESTCD","Purpose":"Tabulation","RelativeOrder":63,"Repeating":"Yes","StandardID":"STD.SDTMIG-3.3"},{"Class":"FINDINGS","DatasetDescription":"Questionnaires-QS5L","DatasetName":"QS5L","DatasetStructure":"One record per questionnaire per question per time point per visit per subject","DomainCode":"QS","ISReferenceData":"No","KeyVariables":"STUDYID, USUBJID, QSCAT, VISITNUM, QSTESTCD","Purpose":"Tabulation","RelativeOrder":64,"Repeating":"Yes","StandardID":"STD.SDTMIG-3.3"},{"Class":"FINDINGS","DatasetDescription":"Questionnaires-QSAC","DatasetName":"QSAC","DatasetStructure":"One record per questionnaire per question per time point per visit per subject","DomainCode":"QS","ISReferenceData":"No","KeyVariables":"STUDYID, USUBJID, QSCAT, VISITNUM, QSTESTCD","Purpose":"Tabulation","RelativeOrder":65,"Repeating":"Yes","StandardID":"STD.SDTMIG-3.3"},{"Class":"FINDINGS","DatasetDescription":"Questionnaires-QSBD","DatasetName":"QSBD","DatasetStructure":"One record per questionnaire per question per time point per visit per subject","DomainCode":"QS","ISReferenceData":"No","KeyVariables":"STUDYID, USUBJID, QSCAT, VISITNUM, QSTESTCD","Purpose":"Tabulation","RelativeOrder":66,"Repeating":"Yes","StandardID":"STD.SDTMIG-3.3"},{"Class":"FINDINGS","DatasetDescription":"Questionnaires-QSCA","DatasetName":"QSCA","DatasetStructure":"One record per questionnaire per question per time point per visit per subject","DomainCode":"QS","ISReferenceData":"No","KeyVariables":"STUDYID, USUBJID, QSCAT, QSSCAT, VISITNUM, QSTESTCD","Purpose":"Tabulation","RelativeOrder":67,"Repeating":"Yes","StandardID":"STD.SDTMIG-3.3"},{"Class":"FINDINGS","DatasetDescription":"Questionnaires-QSCG","DatasetName":"QSCG","DatasetStructure":"One record per questionnaire per question per time point per visit per subject","DomainCode":"QS","ISReferenceData":"No","KeyVariables":"STUDYID, USUBJID, QSCAT, QSSCAT, VISITNUM, QSTESTCD","Purpose":"Tabulation","RelativeOrder":68,"Repeating":"Yes","StandardID":"STD.SDTMIG-3.3"},{"Class":"FINDINGS","DatasetDescription":"Questionnaires-QSCL","DatasetName":"QSCL","DatasetStructure":"One record per questionnaire per question per time point per visit per subject","DomainCode":"QS","ISReferenceData":"No","KeyVariables":"STUDYID, USUBJID, QSCAT, QSSCAT, VISITNUM, QSTESTCD","Purpose":"Tabulation","RelativeOrder":69,"Repeating":"Yes","StandardID":"STD.SDTMIG-3.3"},{"Class":"FINDINGS","DatasetDescription":"Questionnaires-QSCQ","DatasetName":"QSCQ","DatasetStructure":"One record per questionnaire per question per time point per visit per subject","DomainCode":"QS","ISReferenceData":"No","KeyVariables":"STUDYID, USUBJID, QSCAT, QSSCAT, VISITNUM, QSTESTCD","Purpose":"Tabulation","RelativeOrder":70,"Repeating":"Yes","StandardID":"STD.SDTMIG-3.3"},{"Class":"FINDINGS","DatasetDescription":"Questionnaires-QSCS","DatasetName":"QSCS","DatasetStructure":"One record per questionnaire per question per time point per visit per subject","DomainCode":"QS","ISReferenceData":"No","KeyVariables":"STUDYID, USUBJID, QSCAT, QSSCAT, VISITNUM, QSTESTCD","Purpose":"Tabulation","RelativeOrder":71,"Repeating":"Yes","StandardID":"STD.SDTMIG-3.3"},{"Class":"FINDINGS","DatasetDescription":"Questionnaires-QSDL","DatasetName":"QSDL","DatasetStructure":"One record per questionnaire per question per time point per visit per subject","DomainCode":"QS","ISReferenceData":"No","KeyVariables":"STUDYID, USUBJID, QSCAT, VISITNUM, QSTESTCD","Purpose":"Tabulation","RelativeOrder":72,"Repeating":"Yes","StandardID":"STD.SDTMIG-3.3"},{"Class":"FINDINGS","DatasetDescription":"Questionnaires-QSF1","DatasetName":"QSF1","DatasetStructure":"One record per questionnaire per question per time point per visit per subject","DomainCode":"QS","ISReferenceData":"No","KeyVariables":"STUDYID, USUBJID, QSCAT, QSSCAT, VISITNUM, QSTESTCD","Purpose":"Tabulation","RelativeOrder":73,"Repeating":"Yes","StandardID":"STD.SDTMIG-3.3"},{"Class":"FINDINGS","DatasetDescription":"Questionnaires-QSF3","DatasetName":"QSF3","DatasetStructure":"One record per questionnaire per question per time point per visit per subject","DomainCode":"QS","ISReferenceData":"No","KeyVariables":"STUDYID, USUBJID, QSCAT, QSSCAT, VISITNUM, QSTESTCD","Purpose":"Tabulation","RelativeOrder":74,"Repeating":"Yes","StandardID":"STD.SDTMIG-3.3"},{"Class":"FINDINGS","DatasetDescription":"Questionnaires-QSHQ","DatasetName":"QSHQ","DatasetStructure":"One record per questionnaire per question per time point per visit per subject","DomainCode":"QS","ISReferenceData":"No","KeyVariables":"STUDYID, USUBJID, QSCAT, QSSCAT, VISITNUM, QSTESTCD","Purpose":"Tabulation","RelativeOrder":75,"Repeating":"Yes","StandardID":"STD.SDTMIG-3.3"},{"Class":"FINDINGS","DatasetDescription":"Questionnaires-QSME","DatasetName":"QSME","DatasetStructure":"One record per questionnaire per question per time point per visit per subject","DomainCode":"QS","ISReferenceData":"No","KeyVariables":"STUDYID, USUBJID, QSCAT, VISITNUM, QSTESTCD","Purpose":"Tabulation","RelativeOrder":76,"Repeating":"Yes","StandardID":"STD.SDTMIG-3.3"},{"Class":"FINDINGS","DatasetDescription":"Questionnaires-QSMF","DatasetName":"QSMF","DatasetStructure":"One record per questionnaire per question per time point per visit per subject","DomainCode":"QS","ISReferenceData":"No","KeyVariables":"STUDYID, USUBJID, QSCAT, VISITNUM, QSTESTCD","Purpose":"Tabulation","RelativeOrder":77,"Repeating":"Yes","StandardID":"STD.SDTMIG-3.3"},{"Class":"FINDINGS","DatasetDescription":"Questionnaires-QSPG","DatasetName":"QSPG","DatasetStructure":"One record per questionnaire per question per time point per visit per subject","DomainCode":"QS","ISReferenceData":"No","KeyVariables":"STUDYID, USUBJID, QSCAT, QSSCAT, VISITNUM, QSTESTCD","Purpose":"Tabulation","RelativeOrder":78,"Repeating":"Yes","StandardID":"STD.SDTMIG-3.3"},{"Class":"FINDINGS","DatasetDescription":"Questionnaires-QSPI","DatasetName":"QSPI","DatasetStructure":"One record per questionnaire per question per time point per visit per subject","DomainCode":"QS","ISReferenceData":"No","KeyVariables":"STUDYID, USUBJID, QSCAT, QSSCAT, VISITNUM, QSTESTCD","Purpose":"Tabulation","RelativeOrder":79,"Repeating":"Yes","StandardID":"STD.SDTMIG-3.3"},{"Class":"FINDINGS","DatasetDescription":"Respiratory System Findings","DatasetName":"RE","DatasetStructure":"One record per finding or result per time point per visit per subject","DomainCode":"RE","ISReferenceData":"No","KeyVariables":"STUDYID, USUBJID, VISITNUM, RETESTCD, RETPTNUM, REREPNUM","Purpose":"Tabulation","RelativeOrder":80,"Repeating":"Yes","StandardID":"STD.SDTMIG-3.3"},{"Class":"FINDINGS","DatasetDescription":"Reproductive System Findings","DatasetName":"RP","DatasetStructure":"One record per finding or result per time point per visit per subject","DomainCode":"RP","ISReferenceData":"No","KeyVariables":"STUDYID, DOMAIN, USUBJID, RPTESTCD, VISITNUM","Purpose":"Tabulation","RelativeOrder":81,"Repeating":"Yes","StandardID":"STD.SDTMIG-3.3"},{"Class":"FINDINGS","DatasetDescription":"Disease Response and Clin Classification","DatasetName":"RS","DatasetStructure":"One record per response assessment or clinical classification assessment per time point per visit per subject per assessor per medical evaluator","DomainCode":"RS","ISReferenceData":"No","KeyVariables":"STUDYID, USUBJID, RSTESTCD, VISITNUM, RSTPTREF, RSTPTNUM, RSEVAL, RSEVALID","Purpose":"Tabulation","RelativeOrder":82,"Repeating":"Yes","StandardID":"STD.SDTMIG-3.3"},{"Class":"FINDINGS","DatasetDescription":"Disease Response and Clin Classif.-RSBO","DatasetName":"RSBO","DatasetStructure":"One record per response assessment or clinical classification assessment per time point per visit per subject per assessor per medical evaluator","DomainCode":"RS","ISReferenceData":"No","KeyVariables":"STUDYID, USUBJID, RSCAT, RSTESTCD, VISITNUM, RSTPTREF, RSTPTNUM, RSEVAL, RSEVALID","Purpose":"Tabulation","RelativeOrder":83,"Repeating":"Yes","StandardID":"STD.SDTMIG-3.3"},{"Class":"FINDINGS","DatasetDescription":"Disease Response and Clin Classif.-RSEG","DatasetName":"RSEG","DatasetStructure":"One record per response assessment or clinical classification assessment per time point per visit per subject per assessor per medical evaluator","DomainCode":"RS","ISReferenceData":"No","KeyVariables":"STUDYID, USUBJID, RSCAT, RSTESTCD, VISITNUM, RSTPTREF, RSTPTNUM","Purpose":"Tabulation","RelativeOrder":84,"Repeating":"Yes","StandardID":"STD.SDTMIG-3.3"},{"Class":"FINDINGS","DatasetDescription":"Disease Response and Clin Classif.-RSKN","DatasetName":"RSKN","DatasetStructure":"One record per response assessment or clinical classification assessment per time point per visit per subject per assessor per medical evaluator","DomainCode":"RS","ISReferenceData":"No","KeyVariables":"STUDYID, USUBJID, RSCAT, RSTESTCD, VISITNUM, RSTPTREF, RSTPTNUM","Purpose":"Tabulation","RelativeOrder":85,"Repeating":"Yes","StandardID":"STD.SDTMIG-3.3"},{"Class":"FINDINGS","DatasetDescription":"Disease Response and Clin Classif.-RSLN","DatasetName":"RSLN","DatasetStructure":"One record per response assessment or clinical classification assessment per time point per visit per subject per assessor per medical evaluator","DomainCode":"RS","ISReferenceData":"No","KeyVariables":"STUDYID, USUBJID, RSCAT, RSTESTCD, VISITNUM, RSTPTREF, RSTPTNUM, RSEVAL, RSEVALID","Purpose":"Tabulation","RelativeOrder":86,"Repeating":"Yes","StandardID":"STD.SDTMIG-3.3"},{"Class":"FINDINGS","DatasetDescription":"Disease Response and Clin Classif.-RSMS","DatasetName":"RSMS","DatasetStructure":"One record per response assessment or clinical classification assessment per time point per visit per subject per assessor per medical evaluator","DomainCode":"RS","ISReferenceData":"No","KeyVariables":"STUDYID, USUBJID, RSCAT, RSTESTCD, VISITNUM, RSTPTREF, RSTPTNUM, RSEVAL, RSEVALID","Purpose":"Tabulation","RelativeOrder":87,"Repeating":"Yes","StandardID":"STD.SDTMIG-3.3"},{"Class":"FINDINGS","DatasetDescription":"Disease Response and Clin Classif.-RSNS","DatasetName":"RSNS","DatasetStructure":"One record per response assessment or clinical classification assessment per time point per visit per subject per assessor per medical evaluator","DomainCode":"RS","ISReferenceData":"No","KeyVariables":"STUDYID, USUBJID, RSCAT, RSTESTCD, VISITNUM, RSTPTREF, RSTPTNUM, RSEVAL, RSEVALID","Purpose":"Tabulation","RelativeOrder":88,"Repeating":"Yes","StandardID":"STD.SDTMIG-3.3"},{"Class":"FINDINGS","DatasetDescription":"Disease Response and Clin Classif.-RSPG","DatasetName":"RSPG","DatasetStructure":"One record per response assessment or clinical classification assessment per time point per visit per subject per assessor per medical evaluator","DomainCode":"RS","ISReferenceData":"No","KeyVariables":"STUDYID, USUBJID, RSCAT, RSTESTCD, VISITNUM, RSTPTREF, RSTPTNUM, RSEVAL, RSEVALID","Purpose":"Tabulation","RelativeOrder":89,"Repeating":"Yes","StandardID":"STD.SDTMIG-3.3"},{"Class":"FINDINGS","DatasetDescription":"Disease Response and Clin Classif.-RSTB","DatasetName":"RSTB","DatasetStructure":"One record per response assessment or clinical classification assessment per time point per visit per subject per assessor per medical evaluator","DomainCode":"RS","ISReferenceData":"No","KeyVariables":"STUDYID, USUBJID, RSCAT, RSTESTCD, VISITNUM, RSTPTREF, RSTPTNUM, RSEVAL, RSEVALID","Purpose":"Tabulation","RelativeOrder":90,"Repeating":"Yes","StandardID":"STD.SDTMIG-3.3"},{"Class":"FINDINGS","DatasetDescription":"Disease Response and Clin Classif.-RSTG","DatasetName":"RSTG","DatasetStructure":"One record per response assessment or clinical classification assessment per time point per visit per subject per assessor per medical evaluator","DomainCode":"RS","ISReferenceData":"No","KeyVariables":"STUDYID, USUBJID, RSCAT, RSTESTCD, VISITNUM, RSTPTREF, RSTPTNUM, RSEVAL, RSEVALID","Purpose":"Tabulation","RelativeOrder":91,"Repeating":"Yes","StandardID":"STD.SDTMIG-3.3"},{"Class":"FINDINGS","DatasetDescription":"Subject Characteristics","DatasetName":"SC","DatasetStructure":"One record per characteristic per subject.","DomainCode":"SC","ISReferenceData":"No","KeyVariables":"STUDYID, USUBJID, SCTESTCD","Purpose":"Tabulation","RelativeOrder":92,"Repeating":"Yes","StandardID":"STD.SDTMIG-3.3"},{"Class":"FINDINGS","DatasetDescription":"Subject Status","DatasetName":"SS","DatasetStructure":"One record per finding per visit per subject","DomainCode":"SS","ISReferenceData":"No","KeyVariables":"STUDYID, USUBJID, SSTESTCD, VISITNUM","Purpose":"Tabulation","RelativeOrder":93,"Repeating":"Yes","StandardID":"STD.SDTMIG-3.3"},{"Class":"FINDINGS","DatasetDescription":"Tumor/Lesion Results","DatasetName":"TR","DatasetStructure":"One record per tumor measurement/assessment per visit per subject per assessor","DomainCode":"TR","ISReferenceData":"No","KeyVariables":"STUDYID, USUBJID, TRTESTCD, TREVALID, VISITNUM","Purpose":"Tabulation","RelativeOrder":94,"Repeating":"Yes","StandardID":"STD.SDTMIG-3.3"},{"Class":"FINDINGS","DatasetDescription":"Tumor/Lesion Identification","DatasetName":"TU","DatasetStructure":"One record per identified tumor per subject per assessor","DomainCode":"TU","ISReferenceData":"No","KeyVariables":"STUDYID, USUBJID, TUEVALID, TULNKID","Purpose":"Tabulation","RelativeOrder":95,"Repeating":"Yes","StandardID":"STD.SDTMIG-3.3"},{"Class":"FINDINGS","DatasetDescription":"Vital Signs","DatasetName":"VS","DatasetStructure":"One record per vital sign measurement per time point per visit per subject","DomainCode":"VS","ISReferenceData":"No","KeyVariables":"STUDYID, USUBJID, VSTESTCD, VISITNUM, VSTPTREF, VSTPTNUM","Purpose":"Tabulation","RelativeOrder":96,"Repeating":"Yes","StandardID":"STD.SDTMIG-3.3"},{"Class":"FINDINGS","DatasetDescription":"Wearables Findings","DatasetName":"ZW","DatasetStructure":"One record per finding per wearable per subject","DomainCode":"ZW","ISReferenceData":"No","IsNonStandard":"Yes","KeyVariables":"STUDYID, USUBJID, ZWTESTCD","Purpose":"Tabulation","RelativeOrder":97,"Repeating":"Yes"},{"Class":"FINDINGS ABOUT","DatasetDescription":"Ass. Persons Find. Ab. Evt or Interv. CM","DatasetName":"APFACM","DatasetStructure":"One record per finding, per object, per time point, per visit per subject","DomainCode":"APFA","ISReferenceData":"No","KeyVariables":"STUDYID, RSUBJID, APID, FATESTCD, FAOBJ, VISITNUM, FATPTREF, FATPTNUM","Purpose":"Tabulation","RelativeOrder":98,"Repeating":"Yes","StandardID":"STD.SDTMIG-AP-1.0"},{"Class":"FINDINGS ABOUT","DatasetDescription":"Event Adjudication Assessments","DatasetName":"EA","DatasetStructure":"One record per finding per object per subject","DomainCode":"EA","ISReferenceData":"No","IsNonStandard":"Yes","KeyVariables":"STUDYID, USUBJID, EATESTCD, EAOBJ","Purpose":"Tabulation","RelativeOrder":99,"Repeating":"Yes"},{"Class":"FINDINGS ABOUT","DatasetDescription":"Findings About Events or Interventions","DatasetName":"FA","DatasetStructure":"One record per finding, per object, per time point, per visit per subject","DomainCode":"FA","ISReferenceData":"No","KeyVariables":"STUDYID, USUBJID, FATESTCD, FAOBJ, VISITNUM, FATPTREF, FATPTNUM","Purpose":"Tabulation","RelativeOrder":100,"Repeating":"Yes","StandardID":"STD.SDTMIG-3.3"},{"Class":"FINDINGS ABOUT","DatasetDescription":"Findings Ab. Events or Interventions-AE","DatasetName":"FAAE","DatasetStructure":"One record per finding, per object, per time point, per visit per subject","DomainCode":"FA","ISReferenceData":"No","KeyVariables":"STUDYID, USUBJID, FATESTCD, FAOBJ, VISITNUM, FATPTREF, FATPTNUM","Purpose":"Tabulation","RelativeOrder":101,"Repeating":"Yes","StandardID":"STD.SDTMIG-3.3"},{"Class":"FINDINGS ABOUT","DatasetDescription":"Findings Ab. Events or Interventions-CE","DatasetName":"FACE","DatasetStructure":"One record per finding, per object, per time point, per visit per subject","DomainCode":"FA","ISReferenceData":"No","KeyVariables":"STUDYID, USUBJID, FATESTCD, FAOBJ, VISITNUM, FATPTREF, FATPTNUM","Purpose":"Tabulation","RelativeOrder":102,"Repeating":"Yes","StandardID":"STD.SDTMIG-3.3"},{"Class":"FINDINGS ABOUT","DatasetDescription":"Findings Ab. Events or Interventions-EC","DatasetName":"FAEC","DatasetStructure":"One record per finding, per object, per time point, per visit per subject","DomainCode":"FA","ISReferenceData":"No","KeyVariables":"STUDYID, USUBJID, FATESTCD, FAOBJ, VISITNUM, FATPTREF, FATPTNUM","Purpose":"Tabulation","RelativeOrder":103,"Repeating":"Yes","StandardID":"STD.SDTMIG-3.3"},{"Class":"FINDINGS ABOUT","DatasetDescription":"Findings Ab. Events or Interventions-EX","DatasetName":"FAEX","DatasetStructure":"One record per finding, per object, per time point, per visit per subject","DomainCode":"FA","ISReferenceData":"No","KeyVariables":"STUDYID, USUBJID, FATESTCD, FAOBJ, VISITNUM, FATPTREF, FATPTNUM","Purpose":"Tabulation","RelativeOrder":104,"Repeating":"Yes","StandardID":"STD.SDTMIG-3.3"},{"Class":"FINDINGS ABOUT","DatasetDescription":"Findings Ab. Events or Interventions-MH","DatasetName":"FAMH","DatasetStructure":"One record per finding, per object, per time point, per visit per subject","DomainCode":"FA","ISReferenceData":"No","KeyVariables":"STUDYID, USUBJID, FATESTCD, FAOBJ, VISITNUM, FATPTREF, FATPTNUM","Purpose":"Tabulation","RelativeOrder":105,"Repeating":"Yes","StandardID":"STD.SDTMIG-3.3"},{"Class":"FINDINGS ABOUT","DatasetDescription":"Findings Ab. Events or Interventions-PR","DatasetName":"FAPR","DatasetStructure":"One record per finding, per object, per time point, per visit per subject","DomainCode":"FA","ISReferenceData":"No","KeyVariables":"STUDYID, USUBJID, FATESTCD, FAOBJ, VISITNUM, FATPTREF, FATPTNUM","Purpose":"Tabulation","RelativeOrder":106,"Repeating":"Yes","StandardID":"STD.SDTMIG-3.3"},{"Class":"FINDINGS ABOUT","DatasetDescription":"Skin Response","DatasetName":"SR","DatasetStructure":"One record per finding, per object, per time point, per visit per subject","DomainCode":"SR","ISReferenceData":"No","KeyVariables":"STUDYID, USUBJID, SRTESTCD, SROBJ, VISITNUM, SRTPTREF, SRTPTNUM","Purpose":"Tabulation","RelativeOrder":107,"Repeating":"Yes","StandardID":"STD.SDTMIG-3.3"},{"Class":"FINDINGS ABOUT","DatasetDescription":"Unrelated Findings Ab. Evt or Interventions","DatasetName":"ZF","DatasetStructure":"One record per finding, per object, per time point, per visit per subject","DomainCode":"ZF","ISReferenceData":"No","IsNonStandard":"Yes","KeyVariables":"STUDYID, USUBJID, ZFTESTCD, ZFOBJ, VISITNUM, ZFTPTREF, ZFTPTNUM","Purpose":"Tabulation","RelativeOrder":108,"Repeating":"Yes"},{"Class":"RELATIONSHIP","DatasetDescription":"Associated Persons Related to Subjects","DatasetName":"APRELSUB","DatasetStructure":"One record per relationship","DomainCode":"APRELSUB","ISReferenceData":"No","KeyVariables":"STUDYID, APID, RSUBJID, SREL","Purpose":"Tabulation","RelativeOrder":109,"Repeating":"Yes","StandardID":"STD.SDTMIG-AP-1.0"},{"Class":"RELATIONSHIP","DatasetDescription":"Device-Subject Relationships","DatasetName":"DR","DatasetStructure":"One record per device/subject combination","DomainCode":"DR","ISReferenceData":"No","KeyVariables":"STUDYID, USUBJID, SPDEVID","Purpose":"Tabulation","RelativeOrder":110,"Repeating":"Yes","StandardID":"STD.SDTMIG-MD-1.1"},{"Class":"RELATIONSHIP","DatasetDescription":"Related Records","DatasetName":"RELREC","DatasetStructure":"One record per related record, group of records or dataset","DomainCode":"RELREC","ISReferenceData":"No","KeyVariables":"STUDYID, RDOMAIN, USUBJID, IDVAR, IDVARVAL, RELID","Purpose":"Tabulation","RelativeOrder":111,"Repeating":"Yes","StandardID":"STD.SDTMIG-3.3"},{"Class":"RELATIONSHIP","DatasetDescription":"Supplemental Qualifiers for APAE","DatasetName":"SQAPAE","DatasetStructure":"One record per IDVAR, IDVARVAL, and QNAM value per subject","DomainCode":"APAE","ISReferenceData":"No","KeyVariables":"STUDYID, RDOMAIN, APID, IDVAR, IDVARVAL, QNAM","Purpose":"Tabulation","RelativeOrder":112,"Repeating":"Yes","StandardID":"STD.SDTMIG-AP-1.0"},{"Class":"RELATIONSHIP","DatasetDescription":"Supplemental Qualifiers for APCM","DatasetName":"SQAPCM","DatasetStructure":"One record per IDVAR, IDVARVAL, and QNAM value per subject","DomainCode":"APCM","ISReferenceData":"No","KeyVariables":"STUDYID, RDOMAIN, APID, IDVAR, IDVARVAL, QNAM","Purpose":"Tabulation","RelativeOrder":113,"Repeating":"Yes","StandardID":"STD.SDTMIG-AP-1.0"},{"Class":"RELATIONSHIP","DatasetDescription":"Supplemental Qualifiers for APSC","DatasetName":"SQAPSC","DatasetStructure":"One record per IDVAR, IDVARVAL, and QNAM value per subject","DomainCode":"APSC","ISReferenceData":"No","KeyVariables":"STUDYID, RDOMAIN, APID, IDVAR, IDVARVAL, QNAM","Purpose":"Tabulation","RelativeOrder":114,"Repeating":"Yes","StandardID":"STD.SDTMIG-AP-1.0"},{"Class":"RELATIONSHIP","DatasetDescription":"Supplemental Qualifiers for AE","DatasetName":"SUPPAE","DatasetStructure":"One record per IDVAR, IDVARVAL, and QNAM value per subject","DomainCode":"AE","ISReferenceData":"No","KeyVariables":"STUDYID, RDOMAIN, USUBJID, IDVAR, IDVARVAL, QNAM","Purpose":"Tabulation","RelativeOrder":115,"Repeating":"Yes","StandardID":"STD.SDTMIG-3.3"},{"Class":"RELATIONSHIP","DatasetDescription":"Supplemental Qualifiers for BE","DatasetName":"SUPPBE","DatasetStructure":"One record per IDVAR, IDVARVAL, and QNAM value per subject","DomainCode":"BE","ISReferenceData":"No","KeyVariables":"STUDYID, RDOMAIN, USUBJID, IDVAR, IDVARVAL, QNAM","Purpose":"Tabulation","RelativeOrder":116,"Repeating":"Yes","StandardID":"STD.SDTMIG-3.4"},{"Class":"RELATIONSHIP","DatasetDescription":"Supplemental Qualifiers for CE","DatasetName":"SUPPCE","DatasetStructure":"One record per IDVAR, IDVARVAL, and QNAM value per subject","DomainCode":"CE","ISReferenceData":"No","KeyVariables":"STUDYID, RDOMAIN, USUBJID, IDVAR, IDVARVAL, QNAM","Purpose":"Tabulation","RelativeOrder":117,"Repeating":"Yes","StandardID":"STD.SDTMIG-3.3"},{"Class":"RELATIONSHIP","DatasetDescription":"Supplemental Qualifiers for CI","DatasetName":"SUPPCI","DatasetStructure":"One record per IDVAR, IDVARVAL, and QNAM value per subject","DomainCode":"CI","ISReferenceData":"No","IsNonStandard":"Yes","KeyVariables":"STUDYID, RDOMAIN, USUBJID, IDVAR, IDVARVAL, QNAM","Purpose":"Tabulation","RelativeOrder":118,"Repeating":"Yes"},{"Class":"RELATIONSHIP","DatasetDescription":"Supplemental Qualifiers for CM","DatasetName":"SUPPCM","DatasetStructure":"One record per IDVAR, IDVARVAL, and QNAM value per subject","DomainCode":"CM","ISReferenceData":"No","KeyVariables":"STUDYID, RDOMAIN, USUBJID, IDVAR, IDVARVAL, QNAM","Purpose":"Tabulation","RelativeOrder":119,"Repeating":"Yes","StandardID":"STD.SDTMIG-3.3"},{"Class":"RELATIONSHIP","DatasetDescription":"Supplemental Qualifiers for CV","DatasetName":"SUPPCV","DatasetStructure":"One record per IDVAR, IDVARVAL, and QNAM value per subject","DomainCode":"CV","ISReferenceData":"No","KeyVariables":"STUDYID, RDOMAIN, USUBJID, IDVAR, IDVARVAL, QNAM","Purpose":"Tabulation","RelativeOrder":120,"Repeating":"Yes","StandardID":"STD.SDTMIG-3.3"},{"Class":"RELATIONSHIP","DatasetDescription":"Supplemental Qualifiers for DD","DatasetName":"SUPPDD","DatasetStructure":"One record per IDVAR, IDVARVAL, and QNAM value per subject","DomainCode":"DD","ISReferenceData":"No","KeyVariables":"STUDYID, RDOMAIN, USUBJID, IDVAR, IDVARVAL, QNAM","Purpose":"Tabulation","RelativeOrder":121,"Repeating":"Yes","StandardID":"STD.SDTMIG-3.3"},{"Class":"RELATIONSHIP","DatasetDescription":"Supplemental Qualifiers for DE","DatasetName":"SUPPDE","DatasetStructure":"One record per IDVAR, IDVARVAL, and QNAM value per subject","DomainCode":"DE","ISReferenceData":"No","KeyVariables":"STUDYID, RDOMAIN, USUBJID, IDVAR, IDVARVAL, QNAM","Purpose":"Tabulation","RelativeOrder":122,"Repeating":"Yes","StandardID":"STD.SDTMIG-MD-1.1"},{"Class":"RELATIONSHIP","DatasetDescription":"Supplemental Qualifiers for DM","DatasetName":"SUPPDM","DatasetStructure":"One record per IDVAR, IDVARVAL, and QNAM value per subject","DomainCode":"DM","ISReferenceData":"No","KeyVariables":"STUDYID, RDOMAIN, USUBJID, IDVAR, IDVARVAL, QNAM","Purpose":"Tabulation","RelativeOrder":123,"Repeating":"Yes","StandardID":"STD.SDTMIG-3.3"},{"Class":"RELATIONSHIP","DatasetDescription":"Supplemental Qualifiers for DS","DatasetName":"SUPPDS","DatasetStructure":"One record per IDVAR, IDVARVAL, and QNAM value per subject","DomainCode":"DS","ISReferenceData":"No","KeyVariables":"STUDYID, RDOMAIN, USUBJID, IDVAR, IDVARVAL, QNAM","Purpose":"Tabulation","RelativeOrder":124,"Repeating":"Yes","StandardID":"STD.SDTMIG-3.3"},{"Class":"RELATIONSHIP","DatasetDescription":"Supplemental Qualifiers for DV","DatasetName":"SUPPDV","DatasetStructure":"One record per IDVAR, IDVARVAL, and QNAM value per subject","DomainCode":"DV","ISReferenceData":"No","KeyVariables":"STUDYID, RDOMAIN, USUBJID, IDVAR, IDVARVAL, QNAM","Purpose":"Tabulation","RelativeOrder":125,"Repeating":"Yes","StandardID":"STD.SDTMIG-3.3"},{"Class":"RELATIONSHIP","DatasetDescription":"Supplemental Qualifiers for EA","DatasetName":"SUPPEA","DatasetStructure":"One record per IDVAR, IDVARVAL, and QNAM value per subject","DomainCode":"EA","ISReferenceData":"No","IsNonStandard":"Yes","KeyVariables":"STUDYID, RDOMAIN, USUBJID, IDVAR, IDVARVAL, QNAM","Purpose":"Tabulation","RelativeOrder":126,"Repeating":"Yes"},{"Class":"RELATIONSHIP","DatasetDescription":"Supplemental Qualifiers for EC","DatasetName":"SUPPEC","DatasetStructure":"One record per IDVAR, IDVARVAL, and QNAM value per subject","DomainCode":"EC","ISReferenceData":"No","KeyVariables":"STUDYID, RDOMAIN, USUBJID, IDVAR, IDVARVAL, QNAM","Purpose":"Tabulation","RelativeOrder":127,"Repeating":"Yes","StandardID":"STD.SDTMIG-3.3"},{"Class":"RELATIONSHIP","DatasetDescription":"Supplemental Qualifiers for EG","DatasetName":"SUPPEG","DatasetStructure":"One record per IDVAR, IDVARVAL, and QNAM value per subject","DomainCode":"EG","ISReferenceData":"No","KeyVariables":"STUDYID, RDOMAIN, USUBJID, IDVAR, IDVARVAL, QNAM","Purpose":"Tabulation","RelativeOrder":128,"Repeating":"Yes","StandardID":"STD.SDTMIG-3.3"},{"Class":"RELATIONSHIP","DatasetDescription":"Supplemental Qualifiers for EX","DatasetName":"SUPPEX","DatasetStructure":"One record per IDVAR, IDVARVAL, and QNAM value per subject","DomainCode":"EX","ISReferenceData":"No","KeyVariables":"STUDYID, RDOMAIN, USUBJID, IDVAR, IDVARVAL, QNAM","Purpose":"Tabulation","RelativeOrder":129,"Repeating":"Yes","StandardID":"STD.SDTMIG-3.3"},{"Class":"RELATIONSHIP","DatasetDescription":"Supplemental Qualifiers for FA","DatasetName":"SUPPFA","DatasetStructure":"One record per IDVAR, IDVARVAL, and QNAM value per subject","DomainCode":"FA","ISReferenceData":"No","KeyVariables":"STUDYID, RDOMAIN, USUBJID, IDVAR, IDVARVAL, QNAM","Purpose":"Tabulation","RelativeOrder":130,"Repeating":"Yes","StandardID":"STD.SDTMIG-3.3"},{"Class":"RELATIONSHIP","DatasetDescription":"Supplemental Qualifiers for FAAE","DatasetName":"SUPPFAAE","DatasetStructure":"One record per IDVAR, IDVARVAL, and QNAM value per subject","DomainCode":"FA","ISReferenceData":"No","KeyVariables":"STUDYID, RDOMAIN, USUBJID, IDVAR, IDVARVAL, QNAM","Purpose":"Tabulation","RelativeOrder":131,"Repeating":"Yes","StandardID":"STD.SDTMIG-3.3"},{"Class":"RELATIONSHIP","DatasetDescription":"Supplemental Qualifiers for FACE","DatasetName":"SUPPFACE","DatasetStructure":"One record per IDVAR, IDVARVAL, and QNAM value per subject","DomainCode":"FA","ISReferenceData":"No","KeyVariables":"STUDYID, RDOMAIN, USUBJID, IDVAR, IDVARVAL, QNAM","Purpose":"Tabulation","RelativeOrder":132,"Repeating":"Yes","StandardID":"STD.SDTMIG-3.3"},{"Class":"RELATIONSHIP","DatasetDescription":"Supplemental Qualifiers for FAMH","DatasetName":"SUPPFAMH","DatasetStructure":"One record per IDVAR, IDVARVAL, and QNAM value per subject","DomainCode":"FA","ISReferenceData":"No","KeyVariables":"STUDYID, RDOMAIN, USUBJID, IDVAR, IDVARVAL, QNAM","Purpose":"Tabulation","RelativeOrder":133,"Repeating":"Yes","StandardID":"STD.SDTMIG-3.3"},{"Class":"RELATIONSHIP","DatasetDescription":"Supplemental Qualifiers for FAPR","DatasetName":"SUPPFAPR","DatasetStructure":"One record per IDVAR, IDVARVAL, and QNAM value per subject","DomainCode":"FA","ISReferenceData":"No","KeyVariables":"STUDYID, RDOMAIN, USUBJID, IDVAR, IDVARVAL, QNAM","Purpose":"Tabulation","RelativeOrder":134,"Repeating":"Yes","StandardID":"STD.SDTMIG-3.3"},{"Class":"RELATIONSHIP","DatasetDescription":"Supplemental Qualifiers for FT25","DatasetName":"SUPPFT25","DatasetStructure":"One record per IDVAR, IDVARVAL, and QNAM value per subject","DomainCode":"FT","ISReferenceData":"No","KeyVariables":"STUDYID, RDOMAIN, USUBJID, IDVAR, IDVARVAL, QNAM","Purpose":"Tabulation","RelativeOrder":135,"Repeating":"Yes","StandardID":"STD.SDTMIG-3.3"},{"Class":"RELATIONSHIP","DatasetDescription":"Supplemental Qualifiers for FT6M","DatasetName":"SUPPFT6M","DatasetStructure":"One record per IDVAR, IDVARVAL, and QNAM value per subject","DomainCode":"FT","ISReferenceData":"No","KeyVariables":"STUDYID, RDOMAIN, USUBJID, IDVAR, IDVARVAL, QNAM","Purpose":"Tabulation","RelativeOrder":136,"Repeating":"Yes","StandardID":"STD.SDTMIG-3.3"},{"Class":"RELATIONSHIP","DatasetDescription":"Supplemental Qualifiers for FTBV","DatasetName":"SUPPFTBV","DatasetStructure":"One record per IDVAR, IDVARVAL, and QNAM value per subject","DomainCode":"FT","ISReferenceData":"No","KeyVariables":"STUDYID, RDOMAIN, USUBJID, IDVAR, IDVARVAL, QNAM","Purpose":"Tabulation","RelativeOrder":137,"Repeating":"Yes","StandardID":"STD.SDTMIG-3.3"},{"Class":"RELATIONSHIP","DatasetDescription":"Supplemental Qualifiers for FTNH","DatasetName":"SUPPFTNH","DatasetStructure":"One record per IDVAR, IDVARVAL, and QNAM value per subject","DomainCode":"FT","ISReferenceData":"No","KeyVariables":"STUDYID, RDOMAIN, USUBJID, IDVAR, IDVARVAL, QNAM","Purpose":"Tabulation","RelativeOrder":138,"Repeating":"Yes","StandardID":"STD.SDTMIG-3.3"},{"Class":"RELATIONSHIP","DatasetDescription":"Supplemental Qualifiers for FTSD","DatasetName":"SUPPFTSD","DatasetStructure":"One record per IDVAR, IDVARVAL, and QNAM value per subject","DomainCode":"FT","ISReferenceData":"No","KeyVariables":"STUDYID, RDOMAIN, USUBJID, IDVAR, IDVARVAL, QNAM","Purpose":"Tabulation","RelativeOrder":139,"Repeating":"Yes","StandardID":"STD.SDTMIG-3.3"},{"Class":"RELATIONSHIP","DatasetDescription":"Supplemental Qualifiers for HO","DatasetName":"SUPPHO","DatasetStructure":"One record per IDVAR, IDVARVAL, and QNAM value per subject","DomainCode":"HO","ISReferenceData":"No","KeyVariables":"STUDYID, RDOMAIN, USUBJID, IDVAR, IDVARVAL, QNAM","Purpose":"Tabulation","RelativeOrder":140,"Repeating":"Yes","StandardID":"STD.SDTMIG-3.3"},{"Class":"RELATIONSHIP","DatasetDescription":"Supplemental Qualifiers for IE","DatasetName":"SUPPIE","DatasetStructure":"One record per IDVAR, IDVARVAL, and QNAM value per subject","DomainCode":"IE","ISReferenceData":"No","KeyVariables":"STUDYID, RDOMAIN, USUBJID, IDVAR, IDVARVAL, QNAM","Purpose":"Tabulation","RelativeOrder":141,"Repeating":"Yes","StandardID":"STD.SDTMIG-3.3"},{"Class":"RELATIONSHIP","DatasetDescription":"Supplemental Qualifiers for IS","DatasetName":"SUPPIS","DatasetStructure":"One record per IDVAR, IDVARVAL, and QNAM value per subject","DomainCode":"IS","ISReferenceData":"No","KeyVariables":"STUDYID, RDOMAIN, USUBJID, IDVAR, IDVARVAL, QNAM","Purpose":"Tabulation","RelativeOrder":142,"Repeating":"Yes","StandardID":"STD.SDTMIG-3.3"},{"Class":"RELATIONSHIP","DatasetDescription":"Supplemental Qualifiers for LB","DatasetName":"SUPPLB","DatasetStructure":"One record per IDVAR, IDVARVAL, and QNAM value per subject","DomainCode":"LB","ISReferenceData":"No","KeyVariables":"STUDYID, RDOMAIN, USUBJID, IDVAR, IDVARVAL, QNAM","Purpose":"Tabulation","RelativeOrder":143,"Repeating":"Yes","StandardID":"STD.SDTMIG-3.3"},{"Class":"RELATIONSHIP","DatasetDescription":"Supplemental Qualifiers for LBUS","DatasetName":"SUPPLBUS","DatasetStructure":"One record per IDVAR, IDVARVAL, and QNAM value per subject","DomainCode":"LBUS","ISReferenceData":"No","IsNonStandard":"Yes","KeyVariables":"STUDYID, RDOMAIN, USUBJID, IDVAR, IDVARVAL, QNAM","Purpose":"Tabulation","RelativeOrder":144,"Repeating":"Yes"},{"Class":"RELATIONSHIP","DatasetDescription":"Supplemental Qualifiers for MH","DatasetName":"SUPPMH","DatasetStructure":"One record per IDVAR, IDVARVAL, and QNAM value per subject","DomainCode":"MH","ISReferenceData":"No","KeyVariables":"STUDYID, RDOMAIN, USUBJID, IDVAR, IDVARVAL, QNAM","Purpose":"Tabulation","RelativeOrder":145,"Repeating":"Yes","StandardID":"STD.SDTMIG-3.3"},{"Class":"RELATIONSHIP","DatasetDescription":"Supplemental Qualifiers for MI","DatasetName":"SUPPMI","DatasetStructure":"One record per IDVAR, IDVARVAL, and QNAM value per subject","DomainCode":"MI","ISReferenceData":"No","KeyVariables":"STUDYID, RDOMAIN, USUBJID, IDVAR, IDVARVAL, QNAM","Purpose":"Tabulation","RelativeOrder":146,"Repeating":"Yes","StandardID":"STD.SDTMIG-3.3"},{"Class":"RELATIONSHIP","DatasetDescription":"Supplemental Qualifiers for ML","DatasetName":"SUPPML","DatasetStructure":"One record per IDVAR, IDVARVAL, and QNAM value per subject","DomainCode":"ML","ISReferenceData":"No","KeyVariables":"STUDYID, RDOMAIN, USUBJID, IDVAR, IDVARVAL, QNAM","Purpose":"Tabulation","RelativeOrder":147,"Repeating":"Yes","StandardID":"STD.SDTMIG-3.3"},{"Class":"RELATIONSHIP","DatasetDescription":"Supplemental Qualifiers for MO","DatasetName":"SUPPMO","DatasetStructure":"One record per IDVAR, IDVARVAL, and QNAM value per subject","DomainCode":"MO","ISReferenceData":"No","KeyVariables":"STUDYID, RDOMAIN, USUBJID, IDVAR, IDVARVAL, QNAM","Purpose":"Tabulation","RelativeOrder":148,"Repeating":"Yes","StandardID":"STD.SDTMIG-3.3"},{"Class":"RELATIONSHIP","DatasetDescription":"Supplemental Qualifiers for NV","DatasetName":"SUPPNV","DatasetStructure":"One record per IDVAR, IDVARVAL, and QNAM value per subject","DomainCode":"NV","ISReferenceData":"No","KeyVariables":"STUDYID, RDOMAIN, USUBJID, IDVAR, IDVARVAL, QNAM","Purpose":"Tabulation","RelativeOrder":149,"Repeating":"Yes","StandardID":"STD.SDTMIG-3.3"},{"Class":"RELATIONSHIP","DatasetDescription":"Supplemental Qualifiers for OE","DatasetName":"SUPPOE","DatasetStructure":"One record per IDVAR, IDVARVAL, and QNAM value per subject","DomainCode":"OE","ISReferenceData":"No","KeyVariables":"STUDYID, RDOMAIN, USUBJID, IDVAR, IDVARVAL, QNAM","Purpose":"Tabulation","RelativeOrder":150,"Repeating":"Yes","StandardID":"STD.SDTMIG-3.3"},{"Class":"RELATIONSHIP","DatasetDescription":"Supplemental Qualifiers for PC","DatasetName":"SUPPPC","DatasetStructure":"One record per IDVAR, IDVARVAL, and QNAM value per subject","DomainCode":"PC","ISReferenceData":"No","KeyVariables":"STUDYID, RDOMAIN, USUBJID, IDVAR, IDVARVAL, QNAM","Purpose":"Tabulation","RelativeOrder":151,"Repeating":"Yes","StandardID":"STD.SDTMIG-3.3"},{"Class":"RELATIONSHIP","DatasetDescription":"Supplemental Qualifiers for PE","DatasetName":"SUPPPE","DatasetStructure":"One record per IDVAR, IDVARVAL, and QNAM value per subject","DomainCode":"PE","ISReferenceData":"No","KeyVariables":"STUDYID, RDOMAIN, USUBJID, IDVAR, IDVARVAL, QNAM","Purpose":"Tabulation","RelativeOrder":152,"Repeating":"Yes","StandardID":"STD.SDTMIG-3.3"},{"Class":"RELATIONSHIP","DatasetDescription":"Supplemental Qualifiers for PF","DatasetName":"SUPPPF","DatasetStructure":"One record per IDVAR, IDVARVAL, and QNAM value per subject","DomainCode":"PF","ISReferenceData":"No","IsNonStandard":"Yes","KeyVariables":"STUDYID, RDOMAIN, USUBJID, IDVAR, IDVARVAL, QNAM","Purpose":"Tabulation","RelativeOrder":153,"Repeating":"Yes"},{"Class":"RELATIONSHIP","DatasetDescription":"Supplemental Qualifiers for PP","DatasetName":"SUPPPP","DatasetStructure":"One record per IDVAR, IDVARVAL, and QNAM value per subject","DomainCode":"PP","ISReferenceData":"No","KeyVariables":"STUDYID, RDOMAIN, USUBJID, IDVAR, IDVARVAL, QNAM","Purpose":"Tabulation","RelativeOrder":154,"Repeating":"Yes","StandardID":"STD.SDTMIG-3.3"},{"Class":"RELATIONSHIP","DatasetDescription":"Supplemental Qualifiers for PR","DatasetName":"SUPPPR","DatasetStructure":"One record per IDVAR, IDVARVAL, and QNAM value per subject","DomainCode":"PR","ISReferenceData":"No","KeyVariables":"STUDYID, RDOMAIN, USUBJID, IDVAR, IDVARVAL, QNAM","Purpose":"Tabulation","RelativeOrder":155,"Repeating":"Yes","StandardID":"STD.SDTMIG-3.3"},{"Class":"RELATIONSHIP","DatasetDescription":"Supplemental Qualifiers for QS","DatasetName":"SUPPQS","DatasetStructure":"One record per IDVAR, IDVARVAL, and QNAM value per subject","DomainCode":"QS","ISReferenceData":"No","KeyVariables":"STUDYID, RDOMAIN, USUBJID, IDVAR, IDVARVAL, QNAM","Purpose":"Tabulation","RelativeOrder":156,"Repeating":"Yes","StandardID":"STD.SDTMIG-3.3"},{"Class":"RELATIONSHIP","DatasetDescription":"Supplemental Qualifiers for QS3L","DatasetName":"SUPPQS3L","DatasetStructure":"One record per IDVAR, IDVARVAL, and QNAM value per subject","DomainCode":"QS","ISReferenceData":"No","KeyVariables":"STUDYID, RDOMAIN, USUBJID, IDVAR, IDVARVAL, QNAM","Purpose":"Tabulation","RelativeOrder":157,"Repeating":"Yes","StandardID":"STD.SDTMIG-3.3"},{"Class":"RELATIONSHIP","DatasetDescription":"Supplemental Qualifiers for QS5L","DatasetName":"SUPPQS5L","DatasetStructure":"One record per IDVAR, IDVARVAL, and QNAM value per subject","DomainCode":"QS","ISReferenceData":"No","KeyVariables":"STUDYID, RDOMAIN, USUBJID, IDVAR, IDVARVAL, QNAM","Purpose":"Tabulation","RelativeOrder":158,"Repeating":"Yes","StandardID":"STD.SDTMIG-3.3"},{"Class":"RELATIONSHIP","DatasetDescription":"Supplemental Qualifiers for QSHQ","DatasetName":"SUPPQSHQ","DatasetStructure":"One record per IDVAR, IDVARVAL, and QNAM value per subject","DomainCode":"QS","ISReferenceData":"No","KeyVariables":"STUDYID, RDOMAIN, USUBJID, IDVAR, IDVARVAL, QNAM","Purpose":"Tabulation","RelativeOrder":159,"Repeating":"Yes","StandardID":"STD.SDTMIG-3.3"},{"Class":"RELATIONSHIP","DatasetDescription":"Supplemental Qualifiers for QSME","DatasetName":"SUPPQSME","DatasetStructure":"One record per IDVAR, IDVARVAL, and QNAM value per subject","DomainCode":"QS","ISReferenceData":"No","KeyVariables":"STUDYID, RDOMAIN, USUBJID, IDVAR, IDVARVAL, QNAM","Purpose":"Tabulation","RelativeOrder":160,"Repeating":"Yes","StandardID":"STD.SDTMIG-3.3"},{"Class":"RELATIONSHIP","DatasetDescription":"Supplemental Qualifiers for QSPI","DatasetName":"SUPPQSPI","DatasetStructure":"One record per IDVAR, IDVARVAL, and QNAM value per subject","DomainCode":"QS","ISReferenceData":"No","KeyVariables":"STUDYID, RDOMAIN, USUBJID, IDVAR, IDVARVAL, QNAM","Purpose":"Tabulation","RelativeOrder":161,"Repeating":"Yes","StandardID":"STD.SDTMIG-3.3"},{"Class":"RELATIONSHIP","DatasetDescription":"Supplemental Qualifiers for RE","DatasetName":"SUPPRE","DatasetStructure":"One record per IDVAR, IDVARVAL, and QNAM value per subject","DomainCode":"RE","ISReferenceData":"No","KeyVariables":"STUDYID, RDOMAIN, USUBJID, IDVAR, IDVARVAL, QNAM","Purpose":"Tabulation","RelativeOrder":162,"Repeating":"Yes","StandardID":"STD.SDTMIG-3.3"},{"Class":"RELATIONSHIP","DatasetDescription":"Supplemental Qualifiers for RS","DatasetName":"SUPPRS","DatasetStructure":"One record per IDVAR, IDVARVAL, and QNAM value per subject","DomainCode":"RS","ISReferenceData":"No","KeyVariables":"STUDYID, RDOMAIN, USUBJID, IDVAR, IDVARVAL, QNAM","Purpose":"Tabulation","RelativeOrder":163,"Repeating":"Yes","StandardID":"STD.SDTMIG-3.3"},{"Class":"RELATIONSHIP","DatasetDescription":"Supplemental Qualifiers for RSNS","DatasetName":"SUPPRSNS","DatasetStructure":"One record per IDVAR, IDVARVAL, and QNAM value per subject","DomainCode":"RS","ISReferenceData":"No","KeyVariables":"STUDYID, RDOMAIN, USUBJID, IDVAR, IDVARVAL, QNAM","Purpose":"Tabulation","RelativeOrder":164,"Repeating":"Yes","StandardID":"STD.SDTMIG-3.3"},{"Class":"RELATIONSHIP","DatasetDescription":"Supplemental Qualifiers for SS","DatasetName":"SUPPSS","DatasetStructure":"One record per IDVAR, IDVARVAL, and QNAM value per subject","DomainCode":"SS","ISReferenceData":"No","KeyVariables":"STUDYID, RDOMAIN, USUBJID, IDVAR, IDVARVAL, QNAM","Purpose":"Tabulation","RelativeOrder":165,"Repeating":"Yes","StandardID":"STD.SDTMIG-3.3"},{"Class":"RELATIONSHIP","DatasetDescription":"Supplemental Qualifiers for SU","DatasetName":"SUPPSU","DatasetStructure":"One record per IDVAR, IDVARVAL, and QNAM value per subject","DomainCode":"SU","ISReferenceData":"No","KeyVariables":"STUDYID, RDOMAIN, USUBJID, IDVAR, IDVARVAL, QNAM","Purpose":"Tabulation","RelativeOrder":166,"Repeating":"Yes","StandardID":"STD.SDTMIG-3.3"},{"Class":"RELATIONSHIP","DatasetDescription":"Supplemental Qualifiers for SV","DatasetName":"SUPPSV","DatasetStructure":"One record per IDVAR, IDVARVAL, and QNAM value per subject","DomainCode":"SV","ISReferenceData":"No","KeyVariables":"STUDYID, RDOMAIN, USUBJID, IDVAR, IDVARVAL, QNAM","Purpose":"Tabulation","RelativeOrder":167,"Repeating":"Yes","StandardID":"STD.SDTMIG-3.3"},{"Class":"RELATIONSHIP","DatasetDescription":"Supplemental Qualifiers for TR","DatasetName":"SUPPTR","DatasetStructure":"One record per IDVAR, IDVARVAL, and QNAM value per subject","DomainCode":"TR","ISReferenceData":"No","KeyVariables":"STUDYID, RDOMAIN, USUBJID, IDVAR, IDVARVAL, QNAM","Purpose":"Tabulation","RelativeOrder":168,"Repeating":"Yes","StandardID":"STD.SDTMIG-3.3"},{"Class":"RELATIONSHIP","DatasetDescription":"Supplemental Qualifiers for TU","DatasetName":"SUPPTU","DatasetStructure":"One record per IDVAR, IDVARVAL, and QNAM value per subject","DomainCode":"TU","ISReferenceData":"No","KeyVariables":"STUDYID, RDOMAIN, USUBJID, IDVAR, IDVARVAL, QNAM","Purpose":"Tabulation","RelativeOrder":169,"Repeating":"Yes","StandardID":"STD.SDTMIG-3.3"},{"Class":"RELATIONSHIP","DatasetDescription":"Supplemental Qualifiers for VS","DatasetName":"SUPPVS","DatasetStructure":"One record per IDVAR, IDVARVAL, and QNAM value per subject","DomainCode":"VS","ISReferenceData":"No","KeyVariables":"STUDYID, RDOMAIN, USUBJID, IDVAR, IDVARVAL, QNAM","Purpose":"Tabulation","RelativeOrder":170,"Repeating":"Yes","StandardID":"STD.SDTMIG-3.3"},{"Class":"RELATIONSHIP","DatasetDescription":"Supplemental Qualifiers for XD","DatasetName":"SUPPXD","DatasetStructure":"One record per IDVAR, IDVARVAL, and QNAM value per subject","DomainCode":"XD","ISReferenceData":"No","IsNonStandard":"Yes","KeyVariables":"STUDYID, RDOMAIN, USUBJID, IDVAR, IDVARVAL, QNAM","Purpose":"Tabulation","RelativeOrder":171,"Repeating":"Yes"},{"Class":"RELATIONSHIP","DatasetDescription":"Supplemental Qualifiers for ZF","DatasetName":"SUPPZF","DatasetStructure":"One record per IDVAR, IDVARVAL, and QNAM value per subject","DomainCode":"ZF","ISReferenceData":"No","IsNonStandard":"Yes","KeyVariables":"STUDYID, RDOMAIN, USUBJID, IDVAR, IDVARVAL, QNAM","Purpose":"Tabulation","RelativeOrder":172,"Repeating":"Yes"},{"Class":"STUDY REFERENCE","DatasetDescription":"Device Identifiers","DatasetName":"DI","DatasetStructure":"One record per device identifier per device","DomainCode":"DI","ISReferenceData":"Yes","KeyVariables":"STUDYID, SPDEVID, DIPARMCD","Purpose":"Tabulation","RelativeOrder":173,"Repeating":"No","StandardID":"STD.SDTMIG-MD-1.1"},{"Class":"LEGACY","DatasetDescription":"Customized Drug Grouping Ref Dataset","DatasetName":"CDG","DatasetStructure":"One record per CDG Name (CDGNAME) per Term Label (TERMLBL)","DomainCode":"CDG","ISReferenceData":"Yes","IsNonStandard":"Yes","KeyVariables":"CDGNAME, TERMLBL","Purpose":"Tabulation","RelativeOrder":174,"Repeating":"No"},{"Class":"LEGACY","DatasetDescription":"Customized MedDRA Query Ref Dataset","DatasetName":"CMQ","DatasetStructure":"One record per CMQ Name (CMQNAME) per Term Code (TERMCD)","DomainCode":"CMQ","ISReferenceData":"Yes","IsNonStandard":"Yes","KeyVariables":"CMQNAME, TERMCD","Purpose":"Tabulation","RelativeOrder":175,"Repeating":"No"},{"Class":"LEGACY","DatasetDescription":"IVRS","DatasetName":"IVRS","DatasetStructure":"One record per subject and per visit and per treatment rumber.","DomainCode":"IVRS","ISReferenceData":"No","IsNonStandard":"Yes","KeyVariables":"STUDYID, USUBJID, VISITNUM, RDTTNBX, RDARM","Purpose":"Tabulation","RelativeOrder":176,"Repeating":"No"},{"Class":"LEGACY","DatasetDescription":"Laboratory Normal Ranges","DatasetName":"LBNR","DatasetStructure":"One record per analyte per sex per age range per date of validity","DomainCode":"LBNR","ISReferenceData":"Yes","IsNonStandard":"Yes","KeyVariables":"STUDYID, LBTESTCD, LBSEX, LBAGELO, LBAGEHI, LBSTVDTC","Purpose":"Tabulation","RelativeOrder":177,"Repeating":"No"},{"Class":"LEGACY","DatasetDescription":"Legacy Protocol Deviations","DatasetName":"LDV","DatasetStructure":"One record per subject and per deviation","DomainCode":"LDV","ISReferenceData":"No","IsNonStandard":"Yes","KeyVariables":"STUDYID, USUBJID, DVTERM","Purpose":"Tabulation","RelativeOrder":178,"Repeating":"No"},{"Class":"LEGACY","DatasetDescription":"RAND","DatasetName":"RAND","DatasetStructure":"One record per Randomization number (RDRAND) and Period (RDPERIOD) if applicable","DomainCode":"RAND","ISReferenceData":"No","IsNonStandard":"Yes","KeyVariables":"STUDYID, RDRAND, RDPERIOD","Purpose":"Tabulation","RelativeOrder":179,"Repeating":"No"}],"ExternalDictionary":[{"Dictionary":"ISO21090 NullFlavor enumeration","DictionaryID":"ISO21090","DictionaryName":"ISO21090 NullFlavor enumeration","DictionaryVersion":"2011-02","Type":"text"},{"Dictionary":"ISO 3166-1 Alpha-3","DictionaryID":"ISO3166","DictionaryName":"ISO Country Codes","DictionaryVersion":"1","Type":"text"},{"Dictionary":"WHODrug","DictionaryID":"DRUGDICT","DictionaryName":"Drug Dictionary","DictionaryVersion":"201404","Type":"text"},{"Dictionary":"MedDRA","DictionaryID":"MEDDRA","DictionaryName":"Adverse Event Dictionary","DictionaryVersion":"17.0","Type":"text"},{"Dictionary":"CTCAE","DictionaryID":"TOXGRAD","DictionaryName":"Common Terminology Criteria for Adverse Events","DictionaryVersion":"4.03","Type":"text"}],"MetaDataInfo":[{"DefineVersion":"2.1.0","Description":"Study EFC1234, Data Definitions","MetadataID":"CDISC01.SDTMIG.3.3.SDTM.1.7","Name":"EFC1234, Data Definitions"}],"SharedComments":[{"CommentText":"For scheduled visits, assigned from the TV domain based on the VISITNUM. Null for unscheduled visits.","VariableName":"VISIT"},{"CommentText":"(See note number x in the Supplemental Data Definitions file for a description of the method used to derive the VISITNUM of unplanned visits)","VariableName":"VISITNUM"},{"CommentText":"(See note number x in the Supplemental Data Definitions file for a descrition of the method used to assign EPOCH to observations)","VariableName":"EPOCH"}],"Standards":[{"Name":"SDTMIG","StandardID":"STD.SDTMIG-3.3","Status":"Final","Type":"IG","Version":"3.3"},{"Name":"SDTMIG","StandardID":"STD.SDTMIG-3.4","Status":"Final","Type":"IG","Version":"3.4"},{"Name":"SDTMIG","StandardID":"STD.SDTMIG-x.x","Status":"Final","Type":"IG","Version":"x.x"},{"Name":"SDTMIG-AP","StandardID":"STD.SDTMIG-AP-1.0","Status":"Final","Type":"IG","Version":"1.0"},{"Name":"SDTMIG-MD","StandardID":"STD.SDTMIG-MD-1.1","Status":"Final","Type":"IG","Version":"1.1"},{"Name":"CDISC/NCI","PublishingSet":"SDTM","StandardID":"STD.CT.SDTMYYYYMMDD","Status":"Final","Type":"CT","Version":"YYYY-MM-DD"},{"Name":"CDISC/NCI","PublishingSet":"SDTM","StandardID":"STD.CT.SDTM20211217","Status":"Final","Type":"CT","Version":"2021-12-17"}],"StudyInfo":[{"DefineVersion":"2.0.0","Description":"Study EFC1234, Data Definitions","MetadataOID":"CDISC01.SDTMIG.3.3.SDTM.1.7","Name":"EFC1234, Data Definitions","ProtocolName":"MIRICAL DRUG","StandardName":"SDTM-IG","StandardVersion":3.3,"StudyDescription":"Comparison of Anti-Xa Activity in the Treatment With Enoxaparin in ACS Admitted to the Emergency.","StudyName":"EFC1234"}],"SuppDocs":[{"DocumentLabel":"Annotated Case Report Form"},{"DocumentLabel":"Clinical Study Data Reviewers Guide"},{"DocumentLabel":"program.sas"}],"SupqualVariables":[{"Core":"Req","DatasetName":"SUPPAE","DomainCode":"AE","Origin":"Protocol","RelativeOrder":10,"Role":"IDENTIFIER","StandardLength":15,"Type":"text","VariableLabel":"Study Identifier","VariableName":"STUDYID"},{"ControlledTerminology":"DOMAIN","Core":"Req","DatasetName":"SUPPAE","Derivation":"Domain abbreviation from where data originated","DerivationType":"Computation","DomainCode":"AE","Origin":"Assigned","RelativeOrder":20,"Role":"IDENTIFIER","StandardLength":4,"Type":"text","VariableLabel":"Related Domain Abbreviation","VariableName":"RDOMAIN"},{"ComputationalMethodOID":"USUBJ","Core":"Req","DatasetName":"SUPPAE","DerivationType":"Computation","DomainCode":"AE","Origin":"Derived","RelativeOrder":30,"Role":"IDENTIFIER","StandardLength":25,"Type":"text","VariableLabel":"Unique Subject Identifier","VariableName":"USUBJID"},{"Core":"Exp","DatasetName":"SUPPAE","DomainCode":"AE","Origin":"Assigned","RelativeOrder":40,"Role":"IDENTIFIER","StandardLength":8,"Type":"text","VariableLabel":"Identifying Variable","VariableName":"IDVAR"},{"Core":"Exp","DatasetName":"SUPPAE","Derivation":"Value of IDVAR in related domain","DerivationType":"Computation","DomainCode":"AE","Origin":"Derived","RelativeOrder":50,"Role":"IDENTIFIER","StandardLength":30,"Type":"text","VariableLabel":"Identifying Variable Value","VariableName":"IDVARVAL"},{"Core":"Req","DatasetName":"SUPPAE","DomainCode":"AE","Origin":"Assigned","RelativeOrder":60,"Role":"TOPIC","StandardLength":8,"Type":"text","VariableLabel":"Qualifier Variable Name","VariableName":"QNAM"},{"Core":"Req","DatasetName":"SUPPAE","DomainCode":"AE","Origin":"Assigned","RelativeOrder":70,"Role":"SYNONYM QUALIFIER","StandardLength":40,"Type":"text","VariableLabel":"Qualifier Variable Label","VariableName":"QLABEL"},{"Core":"Req","DatasetName":"SUPPAE","DomainCode":"AE","RelativeOrder":80,"Role":"RESULT QUALIFIER","StandardLength":200,"Type":"text","VariableLabel":"Data Value","VariableName":"QVAL"},{"ControlledTerminology":"ORIGIN","Core":"Req","DatasetName":"SUPPAE","DomainCode":"AE","Origin":"Assigned","RelativeOrder":90,"Role":"RECORD QUALIFIER","StandardLength":25,"Type":"text","VariableLabel":"Origin","VariableName":"QORIG"},{"ControlledTerminology":"EVAL","Core":"Exp","DatasetName":"SUPPAE","DomainCode":"AE","Origin":"Assigned","RelativeOrder":100,"Role":"RECORD QUALIFIER","StandardLength":60,"Type":"text","VariableLabel":"Evaluator","VariableName":"QEVAL"},{"Core":"Req","DatasetName":"SQAPAE","DomainCode":"APAE","Origin":"Protocol","RelativeOrder":10,"Role":"IDENTIFIER","StandardLength":15,"Type":"text","VariableLabel":"Study Identifier","VariableName":"STUDYID"},{"ControlledTerminology":"DOMAIN","Core":"Req","DatasetName":"SQAPAE","Derivation":"Domain abbreviation from where data originated","DerivationType":"Computation","DomainCode":"APAE","Origin":"Assigned","RelativeOrder":20,"Role":"IDENTIFIER","StandardLength":4,"Type":"text","VariableLabel":"Related Domain Abbreviation","VariableName":"RDOMAIN"},{"ComputationalMethodOID":"USUBJ","Core":"Req","DatasetName":"SQAPAE","DerivationType":"Computation","DomainCode":"APAE","Origin":"Derived","RelativeOrder":30,"Role":"IDENTIFIER","StandardLength":25,"Type":"text","VariableLabel":"Unique Subject Identifier","VariableName":"USUBJID"},{"Core":"Req","DatasetName":"SQAPAE","Derivation":"Concatenate USUBJID !! 'P'","DerivationType":"Computation","DomainCode":"APAE","Origin":"Derived","RelativeOrder":40,"Role":"IDENTIFIER","StandardLength":26,"Type":"text","VariableLabel":"Associated Persons Identifier","VariableName":"APID"},{"Core":"Exp","DatasetName":"SQAPAE","DomainCode":"APAE","Origin":"Assigned","RelativeOrder":50,"Role":"IDENTIFIER","StandardLength":8,"Type":"text","VariableLabel":"Identifying Variable","VariableName":"IDVAR"},{"Core":"Exp","DatasetName":"SQAPAE","Derivation":"Value of IDVAR in related domain","DerivationType":"Computation","DomainCode":"APAE","Origin":"Derived","RelativeOrder":60,"Role":"IDENTIFIER","StandardLength":30,"Type":"text","VariableLabel":"Identifying Variable Value","VariableName":"IDVARVAL"},{"Core":"Req","DatasetName":"SQAPAE","DomainCode":"APAE","Origin":"Assigned","RelativeOrder":70,"Role":"TOPIC","StandardLength":8,"Type":"text","VariableLabel":"Qualifier Variable Name","VariableName":"QNAM"},{"Core":"Req","DatasetName":"SQAPAE","DomainCode":"APAE","Origin":"Assigned","RelativeOrder":80,"Role":"SYNONYM QUALIFIER","StandardLength":40,"Type":"text","VariableLabel":"Qualifier Variable Label","VariableName":"QLABEL"},{"Core":"Req","DatasetName":"SQAPAE","DomainCode":"APAE","RelativeOrder":90,"Role":"RESULT QUALIFIER","StandardLength":200,"Type":"text","VariableLabel":"Data Value","VariableName":"QVAL"},{"ControlledTerminology":"ORIGIN","Core":"Req","DatasetName":"SQAPAE","DomainCode":"APAE","Origin":"Assigned","RelativeOrder":100,"Role":"RECORD QUALIFIER","StandardLength":25,"Type":"text","VariableLabel":"Origin","VariableName":"QORIG"},{"ControlledTerminology":"EVAL","Core":"Exp","DatasetName":"SQAPAE","DomainCode":"APAE","Origin":"Assigned","RelativeOrder":110,"Role":"RECORD QUALIFIER","StandardLength":60,"Type":"text","VariableLabel":"Evaluator","VariableName":"QEVAL"},{"Core":"Req","DatasetName":"SQAPCM","DomainCode":"APCM","Origin":"Protocol","RelativeOrder":10,"Role":"IDENTIFIER","StandardLength":15,"Type":"text","VariableLabel":"Study Identifier","VariableName":"STUDYID"},{"ControlledTerminology":"DOMAIN","Core":"Req","DatasetName":"SQAPCM","Derivation":"Domain abbreviation from where data originated","DerivationType":"Computation","DomainCode":"APCM","Origin":"Assigned","RelativeOrder":20,"Role":"IDENTIFIER","StandardLength":4,"Type":"text","VariableLabel":"Related Domain Abbreviation","VariableName":"RDOMAIN"},{"ComputationalMethodOID":"USUBJ","Core":"Req","DatasetName":"SQAPCM","DerivationType":"Computation","DomainCode":"APCM","Origin":"Derived","RelativeOrder":30,"Role":"IDENTIFIER","StandardLength":25,"Type":"text","VariableLabel":"Unique Subject Identifier","VariableName":"USUBJID"},{"Core":"Req","DatasetName":"SQAPCM","Derivation":"Concatenate USUBJID !! 'P'","DerivationType":"Computation","DomainCode":"APCM","Origin":"Derived","RelativeOrder":40,"Role":"IDENTIFIER","StandardLength":26,"Type":"text","VariableLabel":"Associated Persons Identifier","VariableName":"APID"},{"Core":"Exp","DatasetName":"SQAPCM","DomainCode":"APCM","Origin":"Assigned","RelativeOrder":50,"Role":"IDENTIFIER","StandardLength":8,"Type":"text","VariableLabel":"Identifying Variable","VariableName":"IDVAR"},{"Core":"Exp","DatasetName":"SQAPCM","Derivation":"Value of IDVAR in related domain","DerivationType":"Computation","DomainCode":"APCM","Origin":"Derived","RelativeOrder":60,"Role":"IDENTIFIER","StandardLength":30,"Type":"text","VariableLabel":"Identifying Variable Value","VariableName":"IDVARVAL"},{"Core":"Req","DatasetName":"SQAPCM","DomainCode":"APCM","Origin":"Assigned","RelativeOrder":70,"Role":"TOPIC","StandardLength":8,"Type":"text","VariableLabel":"Qualifier Variable Name","VariableName":"QNAM"},{"Core":"Req","DatasetName":"SQAPCM","DomainCode":"APCM","Origin":"Assigned","RelativeOrder":80,"Role":"SYNONYM QUALIFIER","StandardLength":40,"Type":"text","VariableLabel":"Qualifier Variable Label","VariableName":"QLABEL"},{"Core":"Req","DatasetName":"SQAPCM","DomainCode":"APCM","RelativeOrder":90,"Role":"RESULT QUALIFIER","StandardLength":200,"Type":"text","VariableLabel":"Data Value","VariableName":"QVAL"},{"ControlledTerminology":"ORIGIN","Core":"Req","DatasetName":"SQAPCM","DomainCode":"APCM","Origin":"Assigned","RelativeOrder":100,"Role":"RECORD QUALIFIER","StandardLength":25,"Type":"text","VariableLabel":"Origin","VariableName":"QORIG"},{"ControlledTerminology":"EVAL","Core":"Exp","DatasetName":"SQAPCM","DomainCode":"APCM","Origin":"Assigned","RelativeOrder":110,"Role":"RECORD QUALIFIER","StandardLength":60,"Type":"text","VariableLabel":"Evaluator","VariableName":"QEVAL"},{"Core":"Req","DatasetName":"SQAPSC","DomainCode":"APSC","Origin":"Protocol","RelativeOrder":10,"Role":"IDENTIFIER","StandardLength":15,"Type":"text","VariableLabel":"Study Identifier","VariableName":"STUDYID"},{"ControlledTerminology":"DOMAIN","Core":"Req","DatasetName":"SQAPSC","Derivation":"Domain abbreviation from where data originated","DerivationType":"Computation","DomainCode":"APSC","Origin":"Assigned","RelativeOrder":20,"Role":"IDENTIFIER","StandardLength":4,"Type":"text","VariableLabel":"Related Domain Abbreviation","VariableName":"RDOMAIN"},{"ComputationalMethodOID":"USUBJ","Core":"Req","DatasetName":"SQAPSC","DerivationType":"Computation","DomainCode":"APSC","Origin":"Derived","RelativeOrder":30,"Role":"IDENTIFIER","StandardLength":25,"Type":"text","VariableLabel":"Unique Subject Identifier","VariableName":"USUBJID"},{"Core":"Req","DatasetName":"SQAPSC","Derivation":"Concatenate USUBJID !! 'P'","DerivationType":"Computation","DomainCode":"APSC","Origin":"Derived","RelativeOrder":40,"Role":"IDENTIFIER","StandardLength":26,"Type":"text","VariableLabel":"Associated Persons Identifier","VariableName":"APID"},{"Core":"Exp","DatasetName":"SQAPSC","DomainCode":"APSC","Origin":"Assigned","RelativeOrder":50,"Role":"IDENTIFIER","StandardLength":8,"Type":"text","VariableLabel":"Identifying Variable","VariableName":"IDVAR"},{"Core":"Exp","DatasetName":"SQAPSC","Derivation":"Value of IDVAR in related domain","DerivationType":"Computation","DomainCode":"APSC","Origin":"Derived","RelativeOrder":60,"Role":"IDENTIFIER","StandardLength":30,"Type":"text","VariableLabel":"Identifying Variable Value","VariableName":"IDVARVAL"},{"Core":"Req","DatasetName":"SQAPSC","DomainCode":"APSC","Origin":"Assigned","RelativeOrder":70,"Role":"TOPIC","StandardLength":8,"Type":"text","VariableLabel":"Qualifier Variable Name","VariableName":"QNAM"},{"Core":"Req","DatasetName":"SQAPSC","DomainCode":"APSC","Origin":"Assigned","RelativeOrder":80,"Role":"SYNONYM QUALIFIER","StandardLength":40,"Type":"text","VariableLabel":"Qualifier Variable Label","VariableName":"QLABEL"},{"Core":"Req","DatasetName":"SQAPSC","DomainCode":"APSC","RelativeOrder":90,"Role":"RESULT QUALIFIER","StandardLength":200,"Type":"text","VariableLabel":"Data Value","VariableName":"QVAL"},{"ControlledTerminology":"ORIGIN","Core":"Req","DatasetName":"SQAPSC","DomainCode":"APSC","Origin":"Assigned","RelativeOrder":100,"Role":"RECORD QUALIFIER","StandardLength":25,"Type":"text","VariableLabel":"Origin","VariableName":"QORIG"},{"ControlledTerminology":"EVAL","Core":"Exp","DatasetName":"SQAPSC","DomainCode":"APSC","Origin":"Assigned","RelativeOrder":110,"Role":"RECORD QUALIFIER","StandardLength":60,"Type":"text","VariableLabel":"Evaluator","VariableName":"QEVAL"},{"Core":"Req","DatasetName":"SUPPBE","DomainCode":"BE","Origin":"Protocol","RelativeOrder":10,"Role":"IDENTIFIER","StandardLength":15,"Type":"text","VariableLabel":"Study Identifier","VariableName":"STUDYID"},{"ControlledTerminology":"DOMAIN","Core":"Req","DatasetName":"SUPPBE","Derivation":"Domain abbreviation from where data originated","DerivationType":"Computation","DomainCode":"BE","Origin":"Assigned","RelativeOrder":20,"Role":"IDENTIFIER","StandardLength":4,"Type":"text","VariableLabel":"Related Domain Abbreviation","VariableName":"RDOMAIN"},{"ComputationalMethodOID":"USUBJ","Core":"Req","DatasetName":"SUPPBE","DerivationType":"Computation","DomainCode":"BE","Origin":"Derived","RelativeOrder":30,"Role":"IDENTIFIER","StandardLength":25,"Type":"text","VariableLabel":"Unique Subject Identifier","VariableName":"USUBJID"},{"Core":"Exp","DatasetName":"SUPPBE","DomainCode":"BE","Origin":"Assigned","RelativeOrder":40,"Role":"IDENTIFIER","StandardLength":8,"Type":"text","VariableLabel":"Identifying Variable","VariableName":"IDVAR"},{"Core":"Exp","DatasetName":"SUPPBE","Derivation":"Value of IDVAR in related domain","DerivationType":"Computation","DomainCode":"BE","Origin":"Derived","RelativeOrder":50,"Role":"IDENTIFIER","StandardLength":30,"Type":"text","VariableLabel":"Identifying Variable Value","VariableName":"IDVARVAL"},{"Core":"Req","DatasetName":"SUPPBE","DomainCode":"BE","Origin":"Assigned","RelativeOrder":60,"Role":"TOPIC","StandardLength":8,"Type":"text","VariableLabel":"Qualifier Variable Name","VariableName":"QNAM"},{"Core":"Req","DatasetName":"SUPPBE","DomainCode":"BE","Origin":"Assigned","RelativeOrder":70,"Role":"SYNONYM QUALIFIER","StandardLength":40,"Type":"text","VariableLabel":"Qualifier Variable Label","VariableName":"QLABEL"},{"Core":"Req","DatasetName":"SUPPBE","DomainCode":"BE","RelativeOrder":80,"Role":"RESULT QUALIFIER","StandardLength":200,"Type":"text","VariableLabel":"Data Value","VariableName":"QVAL"},{"ControlledTerminology":"ORIGIN","Core":"Req","DatasetName":"SUPPBE","DomainCode":"BE","Origin":"Assigned","RelativeOrder":90,"Role":"RECORD QUALIFIER","StandardLength":25,"Type":"text","VariableLabel":"Origin","VariableName":"QORIG"},{"ControlledTerminology":"EVAL","Core":"Exp","DatasetName":"SUPPBE","DomainCode":"BE","Origin":"Assigned","RelativeOrder":100,"Role":"RECORD QUALIFIER","StandardLength":60,"Type":"text","VariableLabel":"Evaluator","VariableName":"QEVAL"},{"Core":"Req","DatasetName":"SUPPCE","DomainCode":"CE","Origin":"Protocol","RelativeOrder":10,"Role":"IDENTIFIER","StandardLength":15,"Type":"text","VariableLabel":"Study Identifier","VariableName":"STUDYID"},{"ControlledTerminology":"DOMAIN","Core":"Req","DatasetName":"SUPPCE","Derivation":"Domain abbreviation from where data originated","DerivationType":"Computation","DomainCode":"CE","Origin":"Assigned","RelativeOrder":20,"Role":"IDENTIFIER","StandardLength":4,"Type":"text","VariableLabel":"Related Domain Abbreviation","VariableName":"RDOMAIN"},{"ComputationalMethodOID":"USUBJ","Core":"Req","DatasetName":"SUPPCE","DerivationType":"Computation","DomainCode":"CE","Origin":"Derived","RelativeOrder":30,"Role":"IDENTIFIER","StandardLength":25,"Type":"text","VariableLabel":"Unique Subject Identifier","VariableName":"USUBJID"},{"Core":"Exp","DatasetName":"SUPPCE","DomainCode":"CE","Origin":"Assigned","RelativeOrder":40,"Role":"IDENTIFIER","StandardLength":8,"Type":"text","VariableLabel":"Identifying Variable","VariableName":"IDVAR"},{"Core":"Exp","DatasetName":"SUPPCE","Derivation":"Value of IDVAR in related domain","DerivationType":"Computation","DomainCode":"CE","Origin":"Derived","RelativeOrder":50,"Role":"IDENTIFIER","StandardLength":30,"Type":"text","VariableLabel":"Identifying Variable Value","VariableName":"IDVARVAL"},{"Core":"Req","DatasetName":"SUPPCE","DomainCode":"CE","Origin":"Assigned","RelativeOrder":60,"Role":"TOPIC","StandardLength":8,"Type":"text","VariableLabel":"Qualifier Variable Name","VariableName":"QNAM"},{"Core":"Req","DatasetName":"SUPPCE","DomainCode":"CE","Origin":"Assigned","RelativeOrder":70,"Role":"SYNONYM QUALIFIER","StandardLength":40,"Type":"text","VariableLabel":"Qualifier Variable Label","VariableName":"QLABEL"},{"Core":"Req","DatasetName":"SUPPCE","DomainCode":"CE","RelativeOrder":80,"Role":"RESULT QUALIFIER","StandardLength":200,"Type":"text","VariableLabel":"Data Value","VariableName":"QVAL"},{"ControlledTerminology":"ORIGIN","Core":"Req","DatasetName":"SUPPCE","DomainCode":"CE","Origin":"Assigned","RelativeOrder":90,"Role":"RECORD QUALIFIER","StandardLength":25,"Type":"text","VariableLabel":"Origin","VariableName":"QORIG"},{"ControlledTerminology":"EVAL","Core":"Exp","DatasetName":"SUPPCE","DomainCode":"CE","Origin":"Assigned","RelativeOrder":100,"Role":"RECORD QUALIFIER","StandardLength":60,"Type":"text","VariableLabel":"Evaluator","VariableName":"QEVAL"},{"Core":"Req","DatasetName":"SUPPCI","DomainCode":"CI","Origin":"Protocol","RelativeOrder":10,"Role":"IDENTIFIER","StandardLength":15,"Type":"text","VariableLabel":"Study Identifier","VariableName":"STUDYID"},{"ControlledTerminology":"DOMAIN","Core":"Req","DatasetName":"SUPPCI","Derivation":"Domain abbreviation from where data originated","DerivationType":"Computation","DomainCode":"CI","Origin":"Assigned","RelativeOrder":20,"Role":"IDENTIFIER","StandardLength":4,"Type":"text","VariableLabel":"Related Domain Abbreviation","VariableName":"RDOMAIN"},{"ComputationalMethodOID":"USUBJ","Core":"Req","DatasetName":"SUPPCI","DerivationType":"Computation","DomainCode":"CI","Origin":"Derived","RelativeOrder":30,"Role":"IDENTIFIER","StandardLength":25,"Type":"text","VariableLabel":"Unique Subject Identifier","VariableName":"USUBJID"},{"Core":"Exp","DatasetName":"SUPPCI","DomainCode":"CI","Origin":"Assigned","RelativeOrder":40,"Role":"IDENTIFIER","StandardLength":8,"Type":"text","VariableLabel":"Identifying Variable","VariableName":"IDVAR"},{"Core":"Exp","DatasetName":"SUPPCI","Derivation":"Value of IDVAR in related domain","DerivationType":"Computation","DomainCode":"CI","Origin":"Derived","RelativeOrder":50,"Role":"IDENTIFIER","StandardLength":30,"Type":"text","VariableLabel":"Identifying Variable Value","VariableName":"IDVARVAL"},{"Core":"Req","DatasetName":"SUPPCI","DomainCode":"CI","Origin":"Assigned","RelativeOrder":60,"Role":"TOPIC","StandardLength":8,"Type":"text","VariableLabel":"Qualifier Variable Name","VariableName":"QNAM"},{"Core":"Req","DatasetName":"SUPPCI","DomainCode":"CI","Origin":"Assigned","RelativeOrder":70,"Role":"SYNONYM QUALIFIER","StandardLength":40,"Type":"text","VariableLabel":"Qualifier Variable Label","VariableName":"QLABEL"},{"Core":"Req","DatasetName":"SUPPCI","DomainCode":"CI","RelativeOrder":80,"Role":"RESULT QUALIFIER","StandardLength":200,"Type":"text","VariableLabel":"Data Value","VariableName":"QVAL"},{"ControlledTerminology":"ORIGIN","Core":"Req","DatasetName":"SUPPCI","DomainCode":"CI","Origin":"Assigned","RelativeOrder":90,"Role":"RECORD QUALIFIER","StandardLength":25,"Type":"text","VariableLabel":"Origin","VariableName":"QORIG"},{"ControlledTerminology":"EVAL","Core":"Exp","DatasetName":"SUPPCI","DomainCode":"CI","Origin":"Assigned","RelativeOrder":100,"Role":"RECORD QUALIFIER","StandardLength":60,"Type":"text","VariableLabel":"Evaluator","VariableName":"QEVAL"},{"Core":"Req","DatasetName":"SUPPCM","DomainCode":"CM","Origin":"Protocol","RelativeOrder":10,"Role":"IDENTIFIER","StandardLength":15,"Type":"text","VariableLabel":"Study Identifier","VariableName":"STUDYID"},{"ControlledTerminology":"DOMAIN","Core":"Req","DatasetName":"SUPPCM","Derivation":"Domain abbreviation from where data originated","DerivationType":"Computation","DomainCode":"CM","Origin":"Assigned","RelativeOrder":20,"Role":"IDENTIFIER","StandardLength":4,"Type":"text","VariableLabel":"Related Domain Abbreviation","VariableName":"RDOMAIN"},{"ComputationalMethodOID":"USUBJ","Core":"Req","DatasetName":"SUPPCM","DerivationType":"Computation","DomainCode":"CM","Origin":"Derived","RelativeOrder":30,"Role":"IDENTIFIER","StandardLength":25,"Type":"text","VariableLabel":"Unique Subject Identifier","VariableName":"USUBJID"},{"Core":"Exp","DatasetName":"SUPPCM","DomainCode":"CM","Origin":"Assigned","RelativeOrder":40,"Role":"IDENTIFIER","StandardLength":8,"Type":"text","VariableLabel":"Identifying Variable","VariableName":"IDVAR"},{"Core":"Exp","DatasetName":"SUPPCM","Derivation":"Value of IDVAR in related domain","DerivationType":"Computation","DomainCode":"CM","Origin":"Derived","RelativeOrder":50,"Role":"IDENTIFIER","StandardLength":30,"Type":"text","VariableLabel":"Identifying Variable Value","VariableName":"IDVARVAL"},{"Core":"Req","DatasetName":"SUPPCM","DomainCode":"CM","Origin":"Assigned","RelativeOrder":60,"Role":"TOPIC","StandardLength":8,"Type":"text","VariableLabel":"Qualifier Variable Name","VariableName":"QNAM"},{"Core":"Req","DatasetName":"SUPPCM","DomainCode":"CM","Origin":"Assigned","RelativeOrder":70,"Role":"SYNONYM QUALIFIER","StandardLength":40,"Type":"text","VariableLabel":"Qualifier Variable Label","VariableName":"QLABEL"},{"Core":"Req","DatasetName":"SUPPCM","DomainCode":"CM","RelativeOrder":80,"Role":"RESULT QUALIFIER","StandardLength":200,"Type":"text","VariableLabel":"Data Value","VariableName":"QVAL"},{"ControlledTerminology":"ORIGIN","Core":"Req","DatasetName":"SUPPCM","DomainCode":"CM","Origin":"Assigned","RelativeOrder":90,"Role":"RECORD QUALIFIER","StandardLength":25,"Type":"text","VariableLabel":"Origin","VariableName":"QORIG"},{"ControlledTerminology":"EVAL","Core":"Exp","DatasetName":"SUPPCM","DomainCode":"CM","Origin":"Assigned","RelativeOrder":100,"Role":"RECORD QUALIFIER","StandardLength":60,"Type":"text","VariableLabel":"Evaluator","VariableName":"QEVAL"},{"Core":"Req","DatasetName":"SUPPCV","DomainCode":"CV","Origin":"Protocol","RelativeOrder":10,"Role":"IDENTIFIER","StandardLength":15,"Type":"text","VariableLabel":"Study Identifier","VariableName":"STUDYID"},{"ControlledTerminology":"DOMAIN","Core":"Req","DatasetName":"SUPPCV","Derivation":"Domain abbreviation from where data originated","DerivationType":"Computation","DomainCode":"CV","Origin":"Assigned","RelativeOrder":20,"Role":"IDENTIFIER","StandardLength":4,"Type":"text","VariableLabel":"Related Domain Abbreviation","VariableName":"RDOMAIN"},{"ComputationalMethodOID":"USUBJ","Core":"Req","DatasetName":"SUPPCV","DerivationType":"Computation","DomainCode":"CV","Origin":"Derived","RelativeOrder":30,"Role":"IDENTIFIER","StandardLength":25,"Type":"text","VariableLabel":"Unique Subject Identifier","VariableName":"USUBJID"},{"Core":"Exp","DatasetName":"SUPPCV","DomainCode":"CV","Origin":"Assigned","RelativeOrder":40,"Role":"IDENTIFIER","StandardLength":8,"Type":"text","VariableLabel":"Identifying Variable","VariableName":"IDVAR"},{"Core":"Exp","DatasetName":"SUPPCV","Derivation":"Value of IDVAR in related domain","DerivationType":"Computation","DomainCode":"CV","Origin":"Derived","RelativeOrder":50,"Role":"IDENTIFIER","StandardLength":30,"Type":"text","VariableLabel":"Identifying Variable Value","VariableName":"IDVARVAL"},{"Core":"Req","DatasetName":"SUPPCV","DomainCode":"CV","Origin":"Assigned","RelativeOrder":60,"Role":"TOPIC","StandardLength":8,"Type":"text","VariableLabel":"Qualifier Variable Name","VariableName":"QNAM"},{"Core":"Req","DatasetName":"SUPPCV","DomainCode":"CV","Origin":"Assigned","RelativeOrder":70,"Role":"SYNONYM QUALIFIER","StandardLength":40,"Type":"text","VariableLabel":"Qualifier Variable Label","VariableName":"QLABEL"},{"Core":"Req","DatasetName":"SUPPCV","DomainCode":"CV","RelativeOrder":80,"Role":"RESULT QUALIFIER","StandardLength":200,"Type":"text","VariableLabel":"Data Value","VariableName":"QVAL"},{"ControlledTerminology":"ORIGIN","Core":"Req","DatasetName":"SUPPCV","DomainCode":"CV","Origin":"Assigned","RelativeOrder":90,"Role":"RECORD QUALIFIER","StandardLength":25,"Type":"text","VariableLabel":"Origin","VariableName":"QORIG"},{"ControlledTerminology":"EVAL","Core":"Exp","DatasetName":"SUPPCV","DomainCode":"CV","Origin":"Assigned","RelativeOrder":100,"Role":"RECORD QUALIFIER","StandardLength":60,"Type":"text","VariableLabel":"Evaluator","VariableName":"QEVAL"},{"Core":"Req","DatasetName":"SUPPDD","DomainCode":"DD","Origin":"Protocol","RelativeOrder":10,"Role":"IDENTIFIER","StandardLength":15,"Type":"text","VariableLabel":"Study Identifier","VariableName":"STUDYID"},{"ControlledTerminology":"DOMAIN","Core":"Req","DatasetName":"SUPPDD","Derivation":"Domain abbreviation from where data originated","DerivationType":"Computation","DomainCode":"DD","Origin":"Assigned","RelativeOrder":20,"Role":"IDENTIFIER","StandardLength":4,"Type":"text","VariableLabel":"Related Domain Abbreviation","VariableName":"RDOMAIN"},{"ComputationalMethodOID":"USUBJ","Core":"Req","DatasetName":"SUPPDD","DerivationType":"Computation","DomainCode":"DD","Origin":"Derived","RelativeOrder":30,"Role":"IDENTIFIER","StandardLength":25,"Type":"text","VariableLabel":"Unique Subject Identifier","VariableName":"USUBJID"},{"Core":"Exp","DatasetName":"SUPPDD","DomainCode":"DD","Origin":"Assigned","RelativeOrder":40,"Role":"IDENTIFIER","StandardLength":8,"Type":"text","VariableLabel":"Identifying Variable","VariableName":"IDVAR"},{"Core":"Exp","DatasetName":"SUPPDD","Derivation":"Value of IDVAR in related domain","DerivationType":"Computation","DomainCode":"DD","Origin":"Derived","RelativeOrder":50,"Role":"IDENTIFIER","StandardLength":30,"Type":"text","VariableLabel":"Identifying Variable Value","VariableName":"IDVARVAL"},{"Core":"Req","DatasetName":"SUPPDD","DomainCode":"DD","Origin":"Assigned","RelativeOrder":60,"Role":"TOPIC","StandardLength":8,"Type":"text","VariableLabel":"Qualifier Variable Name","VariableName":"QNAM"},{"Core":"Req","DatasetName":"SUPPDD","DomainCode":"DD","Origin":"Assigned","RelativeOrder":70,"Role":"SYNONYM QUALIFIER","StandardLength":40,"Type":"text","VariableLabel":"Qualifier Variable Label","VariableName":"QLABEL"},{"Core":"Req","DatasetName":"SUPPDD","DomainCode":"DD","RelativeOrder":80,"Role":"RESULT QUALIFIER","StandardLength":200,"Type":"text","VariableLabel":"Data Value","VariableName":"QVAL"},{"ControlledTerminology":"ORIGIN","Core":"Req","DatasetName":"SUPPDD","DomainCode":"DD","Origin":"Assigned","RelativeOrder":90,"Role":"RECORD QUALIFIER","StandardLength":25,"Type":"text","VariableLabel":"Origin","VariableName":"QORIG"},{"ControlledTerminology":"EVAL","Core":"Exp","DatasetName":"SUPPDD","DomainCode":"DD","Origin":"Assigned","RelativeOrder":100,"Role":"RECORD QUALIFIER","StandardLength":60,"Type":"text","VariableLabel":"Evaluator","VariableName":"QEVAL"},{"Core":"Req","DatasetName":"SUPPDE","DomainCode":"DE","Origin":"Protocol","RelativeOrder":10,"Role":"IDENTIFIER","StandardLength":15,"Type":"text","VariableLabel":"Study Identifier","VariableName":"STUDYID"},{"ControlledTerminology":"DOMAIN","Core":"Req","DatasetName":"SUPPDE","Derivation":"Domain abbreviation from where data originated","DerivationType":"Computation","DomainCode":"DE","Origin":"Assigned","RelativeOrder":20,"Role":"IDENTIFIER","StandardLength":4,"Type":"text","VariableLabel":"Related Domain Abbreviation","VariableName":"RDOMAIN"},{"ComputationalMethodOID":"USUBJ","Core":"Req","DatasetName":"SUPPDE","DerivationType":"Computation","DomainCode":"DE","Origin":"Derived","RelativeOrder":30,"Role":"IDENTIFIER","StandardLength":25,"Type":"text","VariableLabel":"Unique Subject Identifier","VariableName":"USUBJID"},{"Core":"Exp","DatasetName":"SUPPDE","DomainCode":"DE","Origin":"Assigned","RelativeOrder":40,"Role":"IDENTIFIER","StandardLength":8,"Type":"text","VariableLabel":"Identifying Variable","VariableName":"IDVAR"},{"Core":"Exp","DatasetName":"SUPPDE","Derivation":"Value of IDVAR in related domain","DerivationType":"Computation","DomainCode":"DE","Origin":"Derived","RelativeOrder":50,"Role":"IDENTIFIER","StandardLength":30,"Type":"text","VariableLabel":"Identifying Variable Value","VariableName":"IDVARVAL"},{"Core":"Req","DatasetName":"SUPPDE","DomainCode":"DE","Origin":"Assigned","RelativeOrder":60,"Role":"TOPIC","StandardLength":8,"Type":"text","VariableLabel":"Qualifier Variable Name","VariableName":"QNAM"},{"Core":"Req","DatasetName":"SUPPDE","DomainCode":"DE","Origin":"Assigned","RelativeOrder":70,"Role":"SYNONYM QUALIFIER","StandardLength":40,"Type":"text","VariableLabel":"Qualifier Variable Label","VariableName":"QLABEL"},{"Core":"Req","DatasetName":"SUPPDE","DomainCode":"DE","RelativeOrder":80,"Role":"RESULT QUALIFIER","StandardLength":200,"Type":"text","VariableLabel":"Data Value","VariableName":"QVAL"},{"ControlledTerminology":"ORIGIN","Core":"Req","DatasetName":"SUPPDE","DomainCode":"DE","Origin":"Assigned","RelativeOrder":90,"Role":"RECORD QUALIFIER","StandardLength":25,"Type":"text","VariableLabel":"Origin","VariableName":"QORIG"},{"ControlledTerminology":"EVAL","Core":"Exp","DatasetName":"SUPPDE","DomainCode":"DE","Origin":"Assigned","RelativeOrder":100,"Role":"RECORD QUALIFIER","StandardLength":60,"Type":"text","VariableLabel":"Evaluator","VariableName":"QEVAL"},{"Core":"Req","DatasetName":"SUPPDM","DomainCode":"DM","Origin":"Protocol","RelativeOrder":10,"Role":"IDENTIFIER","StandardLength":15,"Type":"text","VariableLabel":"Study Identifier","VariableName":"STUDYID"},{"ControlledTerminology":"DOMAIN","Core":"Req","DatasetName":"SUPPDM","Derivation":"Domain abbreviation from where data originated","DerivationType":"Computation","DomainCode":"DM","Origin":"Assigned","RelativeOrder":20,"Role":"IDENTIFIER","StandardLength":4,"Type":"text","VariableLabel":"Related Domain Abbreviation","VariableName":"RDOMAIN"},{"ComputationalMethodOID":"USUBJ","Core":"Req","DatasetName":"SUPPDM","DerivationType":"Computation","DomainCode":"DM","Origin":"Derived","RelativeOrder":30,"Role":"IDENTIFIER","StandardLength":25,"Type":"text","VariableLabel":"Unique Subject Identifier","VariableName":"USUBJID"},{"Core":"Exp","DatasetName":"SUPPDM","DomainCode":"DM","Origin":"Assigned","RelativeOrder":40,"Role":"IDENTIFIER","StandardLength":8,"Type":"text","VariableLabel":"Identifying Variable","VariableName":"IDVAR"},{"Core":"Exp","DatasetName":"SUPPDM","Derivation":"Value of IDVAR in related domain","DerivationType":"Computation","DomainCode":"DM","Origin":"Derived","RelativeOrder":50,"Role":"IDENTIFIER","StandardLength":30,"Type":"text","VariableLabel":"Identifying Variable Value","VariableName":"IDVARVAL"},{"Core":"Req","DatasetName":"SUPPDM","DomainCode":"DM","Origin":"Assigned","RelativeOrder":60,"Role":"TOPIC","StandardLength":8,"Type":"text","VariableLabel":"Qualifier Variable Name","VariableName":"QNAM"},{"Core":"Req","DatasetName":"SUPPDM","DomainCode":"DM","Origin":"Assigned","RelativeOrder":70,"Role":"SYNONYM QUALIFIER","StandardLength":40,"Type":"text","VariableLabel":"Qualifier Variable Label","VariableName":"QLABEL"},{"Core":"Req","DatasetName":"SUPPDM","DomainCode":"DM","RelativeOrder":80,"Role":"RESULT QUALIFIER","StandardLength":200,"Type":"text","VariableLabel":"Data Value","VariableName":"QVAL"},{"ControlledTerminology":"ORIGIN","Core":"Req","DatasetName":"SUPPDM","DomainCode":"DM","Origin":"Assigned","RelativeOrder":90,"Role":"RECORD QUALIFIER","StandardLength":25,"Type":"text","VariableLabel":"Origin","VariableName":"QORIG"},{"ControlledTerminology":"EVAL","Core":"Exp","DatasetName":"SUPPDM","DomainCode":"DM","Origin":"Assigned","RelativeOrder":100,"Role":"RECORD QUALIFIER","StandardLength":60,"Type":"text","VariableLabel":"Evaluator","VariableName":"QEVAL"},{"Core":"Req","DatasetName":"SUPPDS","DomainCode":"DS","Origin":"Protocol","RelativeOrder":10,"Role":"IDENTIFIER","StandardLength":15,"Type":"text","VariableLabel":"Study Identifier","VariableName":"STUDYID"},{"ControlledTerminology":"DOMAIN","Core":"Req","DatasetName":"SUPPDS","Derivation":"Domain abbreviation from where data originated","DerivationType":"Computation","DomainCode":"DS","Origin":"Assigned","RelativeOrder":20,"Role":"IDENTIFIER","StandardLength":4,"Type":"text","VariableLabel":"Related Domain Abbreviation","VariableName":"RDOMAIN"},{"ComputationalMethodOID":"USUBJ","Core":"Req","DatasetName":"SUPPDS","DerivationType":"Computation","DomainCode":"DS","Origin":"Derived","RelativeOrder":30,"Role":"IDENTIFIER","StandardLength":25,"Type":"text","VariableLabel":"Unique Subject Identifier","VariableName":"USUBJID"},{"Core":"Exp","DatasetName":"SUPPDS","DomainCode":"DS","Origin":"Assigned","RelativeOrder":40,"Role":"IDENTIFIER","StandardLength":8,"Type":"text","VariableLabel":"Identifying Variable","VariableName":"IDVAR"},{"Core":"Exp","DatasetName":"SUPPDS","Derivation":"Value of IDVAR in related domain","DerivationType":"Computation","DomainCode":"DS","Origin":"Derived","RelativeOrder":50,"Role":"IDENTIFIER","StandardLength":30,"Type":"text","VariableLabel":"Identifying Variable Value","VariableName":"IDVARVAL"},{"Core":"Req","DatasetName":"SUPPDS","DomainCode":"DS","Origin":"Assigned","RelativeOrder":60,"Role":"TOPIC","StandardLength":8,"Type":"text","VariableLabel":"Qualifier Variable Name","VariableName":"QNAM"},{"Core":"Req","DatasetName":"SUPPDS","DomainCode":"DS","Origin":"Assigned","RelativeOrder":70,"Role":"SYNONYM QUALIFIER","StandardLength":40,"Type":"text","VariableLabel":"Qualifier Variable Label","VariableName":"QLABEL"},{"Core":"Req","DatasetName":"SUPPDS","DomainCode":"DS","RelativeOrder":80,"Role":"RESULT QUALIFIER","StandardLength":200,"Type":"text","VariableLabel":"Data Value","VariableName":"QVAL"},{"ControlledTerminology":"ORIGIN","Core":"Req","DatasetName":"SUPPDS","DomainCode":"DS","Origin":"Assigned","RelativeOrder":90,"Role":"RECORD QUALIFIER","StandardLength":25,"Type":"text","VariableLabel":"Origin","VariableName":"QORIG"},{"ControlledTerminology":"EVAL","Core":"Exp","DatasetName":"SUPPDS","DomainCode":"DS","Origin":"Assigned","RelativeOrder":100,"Role":"RECORD QUALIFIER","StandardLength":60,"Type":"text","VariableLabel":"Evaluator","VariableName":"QEVAL"},{"Core":"Req","DatasetName":"SUPPDV","DomainCode":"DV","Origin":"Protocol","RelativeOrder":10,"Role":"IDENTIFIER","StandardLength":15,"Type":"text","VariableLabel":"Study Identifier","VariableName":"STUDYID"},{"ControlledTerminology":"DOMAIN","Core":"Req","DatasetName":"SUPPDV","Derivation":"Domain abbreviation from where data originated","DerivationType":"Computation","DomainCode":"DV","Origin":"Assigned","RelativeOrder":20,"Role":"IDENTIFIER","StandardLength":4,"Type":"text","VariableLabel":"Related Domain Abbreviation","VariableName":"RDOMAIN"},{"ComputationalMethodOID":"USUBJ","Core":"Req","DatasetName":"SUPPDV","DerivationType":"Computation","DomainCode":"DV","Origin":"Derived","RelativeOrder":30,"Role":"IDENTIFIER","StandardLength":25,"Type":"text","VariableLabel":"Unique Subject Identifier","VariableName":"USUBJID"},{"Core":"Exp","DatasetName":"SUPPDV","DomainCode":"DV","Origin":"Assigned","RelativeOrder":40,"Role":"IDENTIFIER","StandardLength":8,"Type":"text","VariableLabel":"Identifying Variable","VariableName":"IDVAR"},{"Core":"Exp","DatasetName":"SUPPDV","Derivation":"Value of IDVAR in related domain","DerivationType":"Computation","DomainCode":"DV","Origin":"Derived","RelativeOrder":50,"Role":"IDENTIFIER","StandardLength":30,"Type":"text","VariableLabel":"Identifying Variable Value","VariableName":"IDVARVAL"},{"Core":"Req","DatasetName":"SUPPDV","DomainCode":"DV","Origin":"Assigned","RelativeOrder":60,"Role":"TOPIC","StandardLength":8,"Type":"text","VariableLabel":"Qualifier Variable Name","VariableName":"QNAM"},{"Core":"Req","DatasetName":"SUPPDV","DomainCode":"DV","Origin":"Assigned","RelativeOrder":70,"Role":"SYNONYM QUALIFIER","StandardLength":40,"Type":"text","VariableLabel":"Qualifier Variable Label","VariableName":"QLABEL"},{"Core":"Req","DatasetName":"SUPPDV","DomainCode":"DV","RelativeOrder":80,"Role":"RESULT QUALIFIER","StandardLength":200,"Type":"text","VariableLabel":"Data Value","VariableName":"QVAL"},{"ControlledTerminology":"ORIGIN","Core":"Req","DatasetName":"SUPPDV","DomainCode":"DV","Origin":"Assigned","RelativeOrder":90,"Role":"RECORD QUALIFIER","StandardLength":25,"Type":"text","VariableLabel":"Origin","VariableName":"QORIG"},{"ControlledTerminology":"EVAL","Core":"Exp","DatasetName":"SUPPDV","DomainCode":"DV","Origin":"Assigned","RelativeOrder":100,"Role":"RECORD QUALIFIER","StandardLength":60,"Type":"text","VariableLabel":"Evaluator","VariableName":"QEVAL"},{"Core":"Req","DatasetName":"SUPPEA","DomainCode":"EA","Origin":"Protocol","RelativeOrder":10,"Role":"IDENTIFIER","StandardLength":15,"Type":"text","VariableLabel":"Study Identifier","VariableName":"STUDYID"},{"ControlledTerminology":"DOMAIN","Core":"Req","DatasetName":"SUPPEA","Derivation":"Domain abbreviation from where data originated","DerivationType":"Computation","DomainCode":"EA","Origin":"Assigned","RelativeOrder":20,"Role":"IDENTIFIER","StandardLength":4,"Type":"text","VariableLabel":"Related Domain Abbreviation","VariableName":"RDOMAIN"},{"ComputationalMethodOID":"USUBJ","Core":"Req","DatasetName":"SUPPEA","DerivationType":"Computation","DomainCode":"EA","Origin":"Derived","RelativeOrder":30,"Role":"IDENTIFIER","StandardLength":25,"Type":"text","VariableLabel":"Unique Subject Identifier","VariableName":"USUBJID"},{"Core":"Exp","DatasetName":"SUPPEA","DomainCode":"EA","Origin":"Assigned","RelativeOrder":40,"Role":"IDENTIFIER","StandardLength":8,"Type":"text","VariableLabel":"Identifying Variable","VariableName":"IDVAR"},{"Core":"Exp","DatasetName":"SUPPEA","Derivation":"Value of IDVAR in related domain","DerivationType":"Computation","DomainCode":"EA","Origin":"Derived","RelativeOrder":50,"Role":"IDENTIFIER","StandardLength":30,"Type":"text","VariableLabel":"Identifying Variable Value","VariableName":"IDVARVAL"},{"Core":"Req","DatasetName":"SUPPEA","DomainCode":"EA","Origin":"Assigned","RelativeOrder":60,"Role":"TOPIC","StandardLength":8,"Type":"text","VariableLabel":"Qualifier Variable Name","VariableName":"QNAM"},{"Core":"Req","DatasetName":"SUPPEA","DomainCode":"EA","Origin":"Assigned","RelativeOrder":70,"Role":"SYNONYM QUALIFIER","StandardLength":40,"Type":"text","VariableLabel":"Qualifier Variable Label","VariableName":"QLABEL"},{"Core":"Req","DatasetName":"SUPPEA","DomainCode":"EA","RelativeOrder":80,"Role":"RESULT QUALIFIER","StandardLength":200,"Type":"text","VariableLabel":"Data Value","VariableName":"QVAL"},{"ControlledTerminology":"ORIGIN","Core":"Req","DatasetName":"SUPPEA","DomainCode":"EA","Origin":"Assigned","RelativeOrder":90,"Role":"RECORD QUALIFIER","StandardLength":25,"Type":"text","VariableLabel":"Origin","VariableName":"QORIG"},{"ControlledTerminology":"EVAL","Core":"Exp","DatasetName":"SUPPEA","DomainCode":"EA","Origin":"Assigned","RelativeOrder":100,"Role":"RECORD QUALIFIER","StandardLength":60,"Type":"text","VariableLabel":"Evaluator","VariableName":"QEVAL"},{"Core":"Req","DatasetName":"SUPPEC","DomainCode":"EC","Origin":"Protocol","RelativeOrder":10,"Role":"IDENTIFIER","StandardLength":15,"Type":"text","VariableLabel":"Study Identifier","VariableName":"STUDYID"},{"ControlledTerminology":"DOMAIN","Core":"Req","DatasetName":"SUPPEC","Derivation":"Domain abbreviation from where data originated","DerivationType":"Computation","DomainCode":"EC","Origin":"Assigned","RelativeOrder":20,"Role":"IDENTIFIER","StandardLength":4,"Type":"text","VariableLabel":"Related Domain Abbreviation","VariableName":"RDOMAIN"},{"ComputationalMethodOID":"USUBJ","Core":"Req","DatasetName":"SUPPEC","DerivationType":"Computation","DomainCode":"EC","Origin":"Derived","RelativeOrder":30,"Role":"IDENTIFIER","StandardLength":25,"Type":"text","VariableLabel":"Unique Subject Identifier","VariableName":"USUBJID"},{"Core":"Exp","DatasetName":"SUPPEC","DomainCode":"EC","Origin":"Assigned","RelativeOrder":40,"Role":"IDENTIFIER","StandardLength":8,"Type":"text","VariableLabel":"Identifying Variable","VariableName":"IDVAR"},{"Core":"Exp","DatasetName":"SUPPEC","Derivation":"Value of IDVAR in related domain","DerivationType":"Computation","DomainCode":"EC","Origin":"Derived","RelativeOrder":50,"Role":"IDENTIFIER","StandardLength":30,"Type":"text","VariableLabel":"Identifying Variable Value","VariableName":"IDVARVAL"},{"Core":"Req","DatasetName":"SUPPEC","DomainCode":"EC","Origin":"Assigned","RelativeOrder":60,"Role":"TOPIC","StandardLength":8,"Type":"text","VariableLabel":"Qualifier Variable Name","VariableName":"QNAM"},{"Core":"Req","DatasetName":"SUPPEC","DomainCode":"EC","Origin":"Assigned","RelativeOrder":70,"Role":"SYNONYM QUALIFIER","StandardLength":40,"Type":"text","VariableLabel":"Qualifier Variable Label","VariableName":"QLABEL"},{"Core":"Req","DatasetName":"SUPPEC","DomainCode":"EC","RelativeOrder":80,"Role":"RESULT QUALIFIER","StandardLength":200,"Type":"text","VariableLabel":"Data Value","VariableName":"QVAL"},{"ControlledTerminology":"ORIGIN","Core":"Req","DatasetName":"SUPPEC","DomainCode":"EC","Origin":"Assigned","RelativeOrder":90,"Role":"RECORD QUALIFIER","StandardLength":25,"Type":"text","VariableLabel":"Origin","VariableName":"QORIG"},{"ControlledTerminology":"EVAL","Core":"Exp","DatasetName":"SUPPEC","DomainCode":"EC","Origin":"Assigned","RelativeOrder":100,"Role":"RECORD QUALIFIER","StandardLength":60,"Type":"text","VariableLabel":"Evaluator","VariableName":"QEVAL"},{"Core":"Req","DatasetName":"SUPPEG","DomainCode":"EG","Origin":"Protocol","RelativeOrder":10,"Role":"IDENTIFIER","StandardLength":15,"Type":"text","VariableLabel":"Study Identifier","VariableName":"STUDYID"},{"ControlledTerminology":"DOMAIN","Core":"Req","DatasetName":"SUPPEG","Derivation":"Domain abbreviation from where data originated","DerivationType":"Computation","DomainCode":"EG","Origin":"Assigned","RelativeOrder":20,"Role":"IDENTIFIER","StandardLength":4,"Type":"text","VariableLabel":"Related Domain Abbreviation","VariableName":"RDOMAIN"},{"ComputationalMethodOID":"USUBJ","Core":"Req","DatasetName":"SUPPEG","DerivationType":"Computation","DomainCode":"EG","Origin":"Derived","RelativeOrder":30,"Role":"IDENTIFIER","StandardLength":25,"Type":"text","VariableLabel":"Unique Subject Identifier","VariableName":"USUBJID"},{"Core":"Exp","DatasetName":"SUPPEG","DomainCode":"EG","Origin":"Assigned","RelativeOrder":40,"Role":"IDENTIFIER","StandardLength":8,"Type":"text","VariableLabel":"Identifying Variable","VariableName":"IDVAR"},{"Core":"Exp","DatasetName":"SUPPEG","Derivation":"Value of IDVAR in related domain","DerivationType":"Computation","DomainCode":"EG","Origin":"Derived","RelativeOrder":50,"Role":"IDENTIFIER","StandardLength":30,"Type":"text","VariableLabel":"Identifying Variable Value","VariableName":"IDVARVAL"},{"Core":"Req","DatasetName":"SUPPEG","DomainCode":"EG","Origin":"Assigned","RelativeOrder":60,"Role":"TOPIC","StandardLength":8,"Type":"text","VariableLabel":"Qualifier Variable Name","VariableName":"QNAM"},{"Core":"Req","DatasetName":"SUPPEG","DomainCode":"EG","Origin":"Assigned","RelativeOrder":70,"Role":"SYNONYM QUALIFIER","StandardLength":40,"Type":"text","VariableLabel":"Qualifier Variable Label","VariableName":"QLABEL"},{"Core":"Req","DatasetName":"SUPPEG","DomainCode":"EG","RelativeOrder":80,"Role":"RESULT QUALIFIER","StandardLength":200,"Type":"text","VariableLabel":"Data Value","VariableName":"QVAL"},{"ControlledTerminology":"ORIGIN","Core":"Req","DatasetName":"SUPPEG","DomainCode":"EG","Origin":"Assigned","RelativeOrder":90,"Role":"RECORD QUALIFIER","StandardLength":25,"Type":"text","VariableLabel":"Origin","VariableName":"QORIG"},{"ControlledTerminology":"EVAL","Core":"Exp","DatasetName":"SUPPEG","DomainCode":"EG","Origin":"Assigned","RelativeOrder":100,"Role":"RECORD QUALIFIER","StandardLength":60,"Type":"text","VariableLabel":"Evaluator","VariableName":"QEVAL"},{"Core":"Req","DatasetName":"SUPPEX","DomainCode":"EX","Origin":"Protocol","RelativeOrder":10,"Role":"IDENTIFIER","StandardLength":15,"Type":"text","VariableLabel":"Study Identifier","VariableName":"STUDYID"},{"ControlledTerminology":"DOMAIN","Core":"Req","DatasetName":"SUPPEX","Derivation":"Domain abbreviation from where data originated","DerivationType":"Computation","DomainCode":"EX","Origin":"Assigned","RelativeOrder":20,"Role":"IDENTIFIER","StandardLength":4,"Type":"text","VariableLabel":"Related Domain Abbreviation","VariableName":"RDOMAIN"},{"ComputationalMethodOID":"USUBJ","Core":"Req","DatasetName":"SUPPEX","DerivationType":"Computation","DomainCode":"EX","Origin":"Derived","RelativeOrder":30,"Role":"IDENTIFIER","StandardLength":25,"Type":"text","VariableLabel":"Unique Subject Identifier","VariableName":"USUBJID"},{"Core":"Exp","DatasetName":"SUPPEX","DomainCode":"EX","Origin":"Assigned","RelativeOrder":40,"Role":"IDENTIFIER","StandardLength":8,"Type":"text","VariableLabel":"Identifying Variable","VariableName":"IDVAR"},{"Core":"Exp","DatasetName":"SUPPEX","Derivation":"Value of IDVAR in related domain","DerivationType":"Computation","DomainCode":"EX","Origin":"Derived","RelativeOrder":50,"Role":"IDENTIFIER","StandardLength":30,"Type":"text","VariableLabel":"Identifying Variable Value","VariableName":"IDVARVAL"},{"Core":"Req","DatasetName":"SUPPEX","DomainCode":"EX","Origin":"Assigned","RelativeOrder":60,"Role":"TOPIC","StandardLength":8,"Type":"text","VariableLabel":"Qualifier Variable Name","VariableName":"QNAM"},{"Core":"Req","DatasetName":"SUPPEX","DomainCode":"EX","Origin":"Assigned","RelativeOrder":70,"Role":"SYNONYM QUALIFIER","StandardLength":40,"Type":"text","VariableLabel":"Qualifier Variable Label","VariableName":"QLABEL"},{"Core":"Req","DatasetName":"SUPPEX","DomainCode":"EX","RelativeOrder":80,"Role":"RESULT QUALIFIER","StandardLength":200,"Type":"text","VariableLabel":"Data Value","VariableName":"QVAL"},{"ControlledTerminology":"ORIGIN","Core":"Req","DatasetName":"SUPPEX","DomainCode":"EX","Origin":"Assigned","RelativeOrder":90,"Role":"RECORD QUALIFIER","StandardLength":25,"Type":"text","VariableLabel":"Origin","VariableName":"QORIG"},{"ControlledTerminology":"EVAL","Core":"Exp","DatasetName":"SUPPEX","DomainCode":"EX","Origin":"Assigned","RelativeOrder":100,"Role":"RECORD QUALIFIER","StandardLength":60,"Type":"text","VariableLabel":"Evaluator","VariableName":"QEVAL"},{"Core":"Req","DatasetName":"SUPPFA","DomainCode":"FA","Origin":"Protocol","RelativeOrder":10,"Role":"IDENTIFIER","StandardLength":15,"Type":"text","VariableLabel":"Study Identifier","VariableName":"STUDYID"},{"ControlledTerminology":"DOMAIN","Core":"Req","DatasetName":"SUPPFA","Derivation":"Domain abbreviation from where data originated","DerivationType":"Computation","DomainCode":"FA","Origin":"Assigned","RelativeOrder":20,"Role":"IDENTIFIER","StandardLength":4,"Type":"text","VariableLabel":"Related Domain Abbreviation","VariableName":"RDOMAIN"},{"ComputationalMethodOID":"USUBJ","Core":"Req","DatasetName":"SUPPFA","DerivationType":"Computation","DomainCode":"FA","Origin":"Derived","RelativeOrder":30,"Role":"IDENTIFIER","StandardLength":25,"Type":"text","VariableLabel":"Unique Subject Identifier","VariableName":"USUBJID"},{"Core":"Exp","DatasetName":"SUPPFA","DomainCode":"FA","Origin":"Assigned","RelativeOrder":40,"Role":"IDENTIFIER","StandardLength":8,"Type":"text","VariableLabel":"Identifying Variable","VariableName":"IDVAR"},{"Core":"Exp","DatasetName":"SUPPFA","Derivation":"Value of IDVAR in related domain","DerivationType":"Computation","DomainCode":"FA","Origin":"Derived","RelativeOrder":50,"Role":"IDENTIFIER","StandardLength":30,"Type":"text","VariableLabel":"Identifying Variable Value","VariableName":"IDVARVAL"},{"Core":"Req","DatasetName":"SUPPFA","DomainCode":"FA","Origin":"Assigned","RelativeOrder":60,"Role":"TOPIC","StandardLength":8,"Type":"text","VariableLabel":"Qualifier Variable Name","VariableName":"QNAM"},{"Core":"Req","DatasetName":"SUPPFA","DomainCode":"FA","Origin":"Assigned","RelativeOrder":70,"Role":"SYNONYM QUALIFIER","StandardLength":40,"Type":"text","VariableLabel":"Qualifier Variable Label","VariableName":"QLABEL"},{"Core":"Req","DatasetName":"SUPPFA","DomainCode":"FA","RelativeOrder":80,"Role":"RESULT QUALIFIER","StandardLength":200,"Type":"text","VariableLabel":"Data Value","VariableName":"QVAL"},{"ControlledTerminology":"ORIGIN","Core":"Req","DatasetName":"SUPPFA","DomainCode":"FA","Origin":"Assigned","RelativeOrder":90,"Role":"RECORD QUALIFIER","StandardLength":25,"Type":"text","VariableLabel":"Origin","VariableName":"QORIG"},{"ControlledTerminology":"EVAL","Core":"Exp","DatasetName":"SUPPFA","DomainCode":"FA","Origin":"Assigned","RelativeOrder":100,"Role":"RECORD QUALIFIER","StandardLength":60,"Type":"text","VariableLabel":"Evaluator","VariableName":"QEVAL"},{"Core":"Req","DatasetName":"SUPPFAAE","DomainCode":"FA","Origin":"Protocol","RelativeOrder":10,"Role":"IDENTIFIER","StandardLength":15,"Type":"text","VariableLabel":"Study Identifier","VariableName":"STUDYID"},{"ControlledTerminology":"DOMAIN","Core":"Req","DatasetName":"SUPPFAAE","Derivation":"Domain abbreviation from where data originated","DerivationType":"Computation","DomainCode":"FA","Origin":"Assigned","RelativeOrder":20,"Role":"IDENTIFIER","StandardLength":4,"Type":"text","VariableLabel":"Related Domain Abbreviation","VariableName":"RDOMAIN"},{"ComputationalMethodOID":"USUBJ","Core":"Req","DatasetName":"SUPPFAAE","DerivationType":"Computation","DomainCode":"FA","Origin":"Derived","RelativeOrder":30,"Role":"IDENTIFIER","StandardLength":25,"Type":"text","VariableLabel":"Unique Subject Identifier","VariableName":"USUBJID"},{"Core":"Exp","DatasetName":"SUPPFAAE","DomainCode":"FA","Origin":"Assigned","RelativeOrder":40,"Role":"IDENTIFIER","StandardLength":8,"Type":"text","VariableLabel":"Identifying Variable","VariableName":"IDVAR"},{"Core":"Exp","DatasetName":"SUPPFAAE","Derivation":"Value of IDVAR in related domain","DerivationType":"Computation","DomainCode":"FA","Origin":"Derived","RelativeOrder":50,"Role":"IDENTIFIER","StandardLength":30,"Type":"text","VariableLabel":"Identifying Variable Value","VariableName":"IDVARVAL"},{"Core":"Req","DatasetName":"SUPPFAAE","DomainCode":"FA","Origin":"Assigned","RelativeOrder":60,"Role":"TOPIC","StandardLength":8,"Type":"text","VariableLabel":"Qualifier Variable Name","VariableName":"QNAM"},{"Core":"Req","DatasetName":"SUPPFAAE","DomainCode":"FA","Origin":"Assigned","RelativeOrder":70,"Role":"SYNONYM QUALIFIER","StandardLength":40,"Type":"text","VariableLabel":"Qualifier Variable Label","VariableName":"QLABEL"},{"Core":"Req","DatasetName":"SUPPFAAE","DomainCode":"FA","RelativeOrder":80,"Role":"RESULT QUALIFIER","StandardLength":200,"Type":"text","VariableLabel":"Data Value","VariableName":"QVAL"},{"ControlledTerminology":"ORIGIN","Core":"Req","DatasetName":"SUPPFAAE","DomainCode":"FA","Origin":"Assigned","RelativeOrder":90,"Role":"RECORD QUALIFIER","StandardLength":25,"Type":"text","VariableLabel":"Origin","VariableName":"QORIG"},{"ControlledTerminology":"EVAL","Core":"Exp","DatasetName":"SUPPFAAE","DomainCode":"FA","Origin":"Assigned","RelativeOrder":100,"Role":"RECORD QUALIFIER","StandardLength":60,"Type":"text","VariableLabel":"Evaluator","VariableName":"QEVAL"},{"Core":"Req","DatasetName":"SUPPFACE","DomainCode":"FA","Origin":"Protocol","RelativeOrder":10,"Role":"IDENTIFIER","StandardLength":15,"Type":"text","VariableLabel":"Study Identifier","VariableName":"STUDYID"},{"ControlledTerminology":"DOMAIN","Core":"Req","DatasetName":"SUPPFACE","Derivation":"Domain abbreviation from where data originated","DerivationType":"Computation","DomainCode":"FA","Origin":"Assigned","RelativeOrder":20,"Role":"IDENTIFIER","StandardLength":4,"Type":"text","VariableLabel":"Related Domain Abbreviation","VariableName":"RDOMAIN"},{"ComputationalMethodOID":"USUBJ","Core":"Req","DatasetName":"SUPPFACE","DerivationType":"Computation","DomainCode":"FA","Origin":"Derived","RelativeOrder":30,"Role":"IDENTIFIER","StandardLength":25,"Type":"text","VariableLabel":"Unique Subject Identifier","VariableName":"USUBJID"},{"Core":"Exp","DatasetName":"SUPPFACE","DomainCode":"FA","Origin":"Assigned","RelativeOrder":40,"Role":"IDENTIFIER","StandardLength":8,"Type":"text","VariableLabel":"Identifying Variable","VariableName":"IDVAR"},{"Core":"Exp","DatasetName":"SUPPFACE","Derivation":"Value of IDVAR in related domain","DerivationType":"Computation","DomainCode":"FA","Origin":"Derived","RelativeOrder":50,"Role":"IDENTIFIER","StandardLength":30,"Type":"text","VariableLabel":"Identifying Variable Value","VariableName":"IDVARVAL"},{"Core":"Req","DatasetName":"SUPPFACE","DomainCode":"FA","Origin":"Assigned","RelativeOrder":60,"Role":"TOPIC","StandardLength":8,"Type":"text","VariableLabel":"Qualifier Variable Name","VariableName":"QNAM"},{"Core":"Req","DatasetName":"SUPPFACE","DomainCode":"FA","Origin":"Assigned","RelativeOrder":70,"Role":"SYNONYM QUALIFIER","StandardLength":40,"Type":"text","VariableLabel":"Qualifier Variable Label","VariableName":"QLABEL"},{"Core":"Req","DatasetName":"SUPPFACE","DomainCode":"FA","RelativeOrder":80,"Role":"RESULT QUALIFIER","StandardLength":200,"Type":"text","VariableLabel":"Data Value","VariableName":"QVAL"},{"ControlledTerminology":"ORIGIN","Core":"Req","DatasetName":"SUPPFACE","DomainCode":"FA","Origin":"Assigned","RelativeOrder":90,"Role":"RECORD QUALIFIER","StandardLength":25,"Type":"text","VariableLabel":"Origin","VariableName":"QORIG"},{"ControlledTerminology":"EVAL","Core":"Exp","DatasetName":"SUPPFACE","DomainCode":"FA","Origin":"Assigned","RelativeOrder":100,"Role":"RECORD QUALIFIER","StandardLength":60,"Type":"text","VariableLabel":"Evaluator","VariableName":"QEVAL"},{"Core":"Req","DatasetName":"SUPPFAMH","DomainCode":"FA","Origin":"Protocol","RelativeOrder":10,"Role":"IDENTIFIER","StandardLength":15,"Type":"text","VariableLabel":"Study Identifier","VariableName":"STUDYID"},{"ControlledTerminology":"DOMAIN","Core":"Req","DatasetName":"SUPPFAMH","Derivation":"Domain abbreviation from where data originated","DerivationType":"Computation","DomainCode":"FA","Origin":"Assigned","RelativeOrder":20,"Role":"IDENTIFIER","StandardLength":4,"Type":"text","VariableLabel":"Related Domain Abbreviation","VariableName":"RDOMAIN"},{"ComputationalMethodOID":"USUBJ","Core":"Req","DatasetName":"SUPPFAMH","DerivationType":"Computation","DomainCode":"FA","Origin":"Derived","RelativeOrder":30,"Role":"IDENTIFIER","StandardLength":25,"Type":"text","VariableLabel":"Unique Subject Identifier","VariableName":"USUBJID"},{"Core":"Exp","DatasetName":"SUPPFAMH","DomainCode":"FA","Origin":"Assigned","RelativeOrder":40,"Role":"IDENTIFIER","StandardLength":8,"Type":"text","VariableLabel":"Identifying Variable","VariableName":"IDVAR"},{"Core":"Exp","DatasetName":"SUPPFAMH","Derivation":"Value of IDVAR in related domain","DerivationType":"Computation","DomainCode":"FA","Origin":"Derived","RelativeOrder":50,"Role":"IDENTIFIER","StandardLength":30,"Type":"text","VariableLabel":"Identifying Variable Value","VariableName":"IDVARVAL"},{"Core":"Req","DatasetName":"SUPPFAMH","DomainCode":"FA","Origin":"Assigned","RelativeOrder":60,"Role":"TOPIC","StandardLength":8,"Type":"text","VariableLabel":"Qualifier Variable Name","VariableName":"QNAM"},{"Core":"Req","DatasetName":"SUPPFAMH","DomainCode":"FA","Origin":"Assigned","RelativeOrder":70,"Role":"SYNONYM QUALIFIER","StandardLength":40,"Type":"text","VariableLabel":"Qualifier Variable Label","VariableName":"QLABEL"},{"Core":"Req","DatasetName":"SUPPFAMH","DomainCode":"FA","RelativeOrder":80,"Role":"RESULT QUALIFIER","StandardLength":200,"Type":"text","VariableLabel":"Data Value","VariableName":"QVAL"},{"ControlledTerminology":"ORIGIN","Core":"Req","DatasetName":"SUPPFAMH","DomainCode":"FA","Origin":"Assigned","RelativeOrder":90,"Role":"RECORD QUALIFIER","StandardLength":25,"Type":"text","VariableLabel":"Origin","VariableName":"QORIG"},{"ControlledTerminology":"EVAL","Core":"Exp","DatasetName":"SUPPFAMH","DomainCode":"FA","Origin":"Assigned","RelativeOrder":100,"Role":"RECORD QUALIFIER","StandardLength":60,"Type":"text","VariableLabel":"Evaluator","VariableName":"QEVAL"},{"Core":"Req","DatasetName":"SUPPFAPR","DomainCode":"FA","Origin":"Protocol","RelativeOrder":10,"Role":"IDENTIFIER","StandardLength":15,"Type":"text","VariableLabel":"Study Identifier","VariableName":"STUDYID"},{"ControlledTerminology":"DOMAIN","Core":"Req","DatasetName":"SUPPFAPR","Derivation":"Domain abbreviation from where data originated","DerivationType":"Computation","DomainCode":"FA","Origin":"Assigned","RelativeOrder":20,"Role":"IDENTIFIER","StandardLength":4,"Type":"text","VariableLabel":"Related Domain Abbreviation","VariableName":"RDOMAIN"},{"ComputationalMethodOID":"USUBJ","Core":"Req","DatasetName":"SUPPFAPR","DerivationType":"Computation","DomainCode":"FA","Origin":"Derived","RelativeOrder":30,"Role":"IDENTIFIER","StandardLength":25,"Type":"text","VariableLabel":"Unique Subject Identifier","VariableName":"USUBJID"},{"Core":"Exp","DatasetName":"SUPPFAPR","DomainCode":"FA","Origin":"Assigned","RelativeOrder":40,"Role":"IDENTIFIER","StandardLength":8,"Type":"text","VariableLabel":"Identifying Variable","VariableName":"IDVAR"},{"Core":"Exp","DatasetName":"SUPPFAPR","Derivation":"Value of IDVAR in related domain","DerivationType":"Computation","DomainCode":"FA","Origin":"Derived","RelativeOrder":50,"Role":"IDENTIFIER","StandardLength":30,"Type":"text","VariableLabel":"Identifying Variable Value","VariableName":"IDVARVAL"},{"Core":"Req","DatasetName":"SUPPFAPR","DomainCode":"FA","Origin":"Assigned","RelativeOrder":60,"Role":"TOPIC","StandardLength":8,"Type":"text","VariableLabel":"Qualifier Variable Name","VariableName":"QNAM"},{"Core":"Req","DatasetName":"SUPPFAPR","DomainCode":"FA","Origin":"Assigned","RelativeOrder":70,"Role":"SYNONYM QUALIFIER","StandardLength":40,"Type":"text","VariableLabel":"Qualifier Variable Label","VariableName":"QLABEL"},{"Core":"Req","DatasetName":"SUPPFAPR","DomainCode":"FA","RelativeOrder":80,"Role":"RESULT QUALIFIER","StandardLength":200,"Type":"text","VariableLabel":"Data Value","VariableName":"QVAL"},{"ControlledTerminology":"ORIGIN","Core":"Req","DatasetName":"SUPPFAPR","DomainCode":"FA","Origin":"Assigned","RelativeOrder":90,"Role":"RECORD QUALIFIER","StandardLength":25,"Type":"text","VariableLabel":"Origin","VariableName":"QORIG"},{"ControlledTerminology":"EVAL","Core":"Exp","DatasetName":"SUPPFAPR","DomainCode":"FA","Origin":"Assigned","RelativeOrder":100,"Role":"RECORD QUALIFIER","StandardLength":60,"Type":"text","VariableLabel":"Evaluator","VariableName":"QEVAL"},{"Core":"Req","DatasetName":"SUPPFT25","DomainCode":"FT","Origin":"Protocol","RelativeOrder":10,"Role":"IDENTIFIER","StandardLength":15,"Type":"text","VariableLabel":"Study Identifier","VariableName":"STUDYID"},{"ControlledTerminology":"DOMAIN","Core":"Req","DatasetName":"SUPPFT25","Derivation":"Domain abbreviation from where data originated","DerivationType":"Computation","DomainCode":"FT","Origin":"Assigned","RelativeOrder":20,"Role":"IDENTIFIER","StandardLength":4,"Type":"text","VariableLabel":"Related Domain Abbreviation","VariableName":"RDOMAIN"},{"ComputationalMethodOID":"USUBJ","Core":"Req","DatasetName":"SUPPFT25","DerivationType":"Computation","DomainCode":"FT","Origin":"Derived","RelativeOrder":30,"Role":"IDENTIFIER","StandardLength":25,"Type":"text","VariableLabel":"Unique Subject Identifier","VariableName":"USUBJID"},{"Core":"Exp","DatasetName":"SUPPFT25","DomainCode":"FT","Origin":"Assigned","RelativeOrder":40,"Role":"IDENTIFIER","StandardLength":8,"Type":"text","VariableLabel":"Identifying Variable","VariableName":"IDVAR"},{"Core":"Exp","DatasetName":"SUPPFT25","Derivation":"Value of IDVAR in related domain","DerivationType":"Computation","DomainCode":"FT","Origin":"Derived","RelativeOrder":50,"Role":"IDENTIFIER","StandardLength":30,"Type":"text","VariableLabel":"Identifying Variable Value","VariableName":"IDVARVAL"},{"Core":"Req","DatasetName":"SUPPFT25","DomainCode":"FT","Origin":"Assigned","RelativeOrder":60,"Role":"TOPIC","StandardLength":8,"Type":"text","VariableLabel":"Qualifier Variable Name","VariableName":"QNAM"},{"Core":"Req","DatasetName":"SUPPFT25","DomainCode":"FT","Origin":"Assigned","RelativeOrder":70,"Role":"SYNONYM QUALIFIER","StandardLength":40,"Type":"text","VariableLabel":"Qualifier Variable Label","VariableName":"QLABEL"},{"Core":"Req","DatasetName":"SUPPFT25","DomainCode":"FT","RelativeOrder":80,"Role":"RESULT QUALIFIER","StandardLength":200,"Type":"text","VariableLabel":"Data Value","VariableName":"QVAL"},{"ControlledTerminology":"ORIGIN","Core":"Req","DatasetName":"SUPPFT25","DomainCode":"FT","Origin":"Assigned","RelativeOrder":90,"Role":"RECORD QUALIFIER","StandardLength":25,"Type":"text","VariableLabel":"Origin","VariableName":"QORIG"},{"ControlledTerminology":"EVAL","Core":"Exp","DatasetName":"SUPPFT25","DomainCode":"FT","Origin":"Assigned","RelativeOrder":100,"Role":"RECORD QUALIFIER","StandardLength":60,"Type":"text","VariableLabel":"Evaluator","VariableName":"QEVAL"},{"Core":"Req","DatasetName":"SUPPFT6M","DomainCode":"FT","Origin":"Protocol","RelativeOrder":10,"Role":"IDENTIFIER","StandardLength":15,"Type":"text","VariableLabel":"Study Identifier","VariableName":"STUDYID"},{"ControlledTerminology":"DOMAIN","Core":"Req","DatasetName":"SUPPFT6M","Derivation":"Domain abbreviation from where data originated","DerivationType":"Computation","DomainCode":"FT","Origin":"Assigned","RelativeOrder":20,"Role":"IDENTIFIER","StandardLength":4,"Type":"text","VariableLabel":"Related Domain Abbreviation","VariableName":"RDOMAIN"},{"ComputationalMethodOID":"USUBJ","Core":"Req","DatasetName":"SUPPFT6M","DerivationType":"Computation","DomainCode":"FT","Origin":"Derived","RelativeOrder":30,"Role":"IDENTIFIER","StandardLength":25,"Type":"text","VariableLabel":"Unique Subject Identifier","VariableName":"USUBJID"},{"Core":"Exp","DatasetName":"SUPPFT6M","DomainCode":"FT","Origin":"Assigned","RelativeOrder":40,"Role":"IDENTIFIER","StandardLength":8,"Type":"text","VariableLabel":"Identifying Variable","VariableName":"IDVAR"},{"Core":"Exp","DatasetName":"SUPPFT6M","Derivation":"Value of IDVAR in related domain","DerivationType":"Computation","DomainCode":"FT","Origin":"Derived","RelativeOrder":50,"Role":"IDENTIFIER","StandardLength":30,"Type":"text","VariableLabel":"Identifying Variable Value","VariableName":"IDVARVAL"},{"Core":"Req","DatasetName":"SUPPFT6M","DomainCode":"FT","Origin":"Assigned","RelativeOrder":60,"Role":"TOPIC","StandardLength":8,"Type":"text","VariableLabel":"Qualifier Variable Name","VariableName":"QNAM"},{"Core":"Req","DatasetName":"SUPPFT6M","DomainCode":"FT","Origin":"Assigned","RelativeOrder":70,"Role":"SYNONYM QUALIFIER","StandardLength":40,"Type":"text","VariableLabel":"Qualifier Variable Label","VariableName":"QLABEL"},{"Core":"Req","DatasetName":"SUPPFT6M","DomainCode":"FT","RelativeOrder":80,"Role":"RESULT QUALIFIER","StandardLength":200,"Type":"text","VariableLabel":"Data Value","VariableName":"QVAL"},{"ControlledTerminology":"ORIGIN","Core":"Req","DatasetName":"SUPPFT6M","DomainCode":"FT","Origin":"Assigned","RelativeOrder":90,"Role":"RECORD QUALIFIER","StandardLength":25,"Type":"text","VariableLabel":"Origin","VariableName":"QORIG"},{"ControlledTerminology":"EVAL","Core":"Exp","DatasetName":"SUPPFT6M","DomainCode":"FT","Origin":"Assigned","RelativeOrder":100,"Role":"RECORD QUALIFIER","StandardLength":60,"Type":"text","VariableLabel":"Evaluator","VariableName":"QEVAL"},{"Core":"Req","DatasetName":"SUPPFTBV","DomainCode":"FT","Origin":"Protocol","RelativeOrder":10,"Role":"IDENTIFIER","StandardLength":15,"Type":"text","VariableLabel":"Study Identifier","VariableName":"STUDYID"},{"ControlledTerminology":"DOMAIN","Core":"Req","DatasetName":"SUPPFTBV","Derivation":"Domain abbreviation from where data originated","DerivationType":"Computation","DomainCode":"FT","Origin":"Assigned","RelativeOrder":20,"Role":"IDENTIFIER","StandardLength":4,"Type":"text","VariableLabel":"Related Domain Abbreviation","VariableName":"RDOMAIN"},{"ComputationalMethodOID":"USUBJ","Core":"Req","DatasetName":"SUPPFTBV","DerivationType":"Computation","DomainCode":"FT","Origin":"Derived","RelativeOrder":30,"Role":"IDENTIFIER","StandardLength":25,"Type":"text","VariableLabel":"Unique Subject Identifier","VariableName":"USUBJID"},{"Core":"Exp","DatasetName":"SUPPFTBV","DomainCode":"FT","Origin":"Assigned","RelativeOrder":40,"Role":"IDENTIFIER","StandardLength":8,"Type":"text","VariableLabel":"Identifying Variable","VariableName":"IDVAR"},{"Core":"Exp","DatasetName":"SUPPFTBV","Derivation":"Value of IDVAR in related domain","DerivationType":"Computation","DomainCode":"FT","Origin":"Derived","RelativeOrder":50,"Role":"IDENTIFIER","StandardLength":30,"Type":"text","VariableLabel":"Identifying Variable Value","VariableName":"IDVARVAL"},{"Core":"Req","DatasetName":"SUPPFTBV","DomainCode":"FT","Origin":"Assigned","RelativeOrder":60,"Role":"TOPIC","StandardLength":8,"Type":"text","VariableLabel":"Qualifier Variable Name","VariableName":"QNAM"},{"Core":"Req","DatasetName":"SUPPFTBV","DomainCode":"FT","Origin":"Assigned","RelativeOrder":70,"Role":"SYNONYM QUALIFIER","StandardLength":40,"Type":"text","VariableLabel":"Qualifier Variable Label","VariableName":"QLABEL"},{"Core":"Req","DatasetName":"SUPPFTBV","DomainCode":"FT","RelativeOrder":80,"Role":"RESULT QUALIFIER","StandardLength":200,"Type":"text","VariableLabel":"Data Value","VariableName":"QVAL"},{"ControlledTerminology":"ORIGIN","Core":"Req","DatasetName":"SUPPFTBV","DomainCode":"FT","Origin":"Assigned","RelativeOrder":90,"Role":"RECORD QUALIFIER","StandardLength":25,"Type":"text","VariableLabel":"Origin","VariableName":"QORIG"},{"ControlledTerminology":"EVAL","Core":"Exp","DatasetName":"SUPPFTBV","DomainCode":"FT","Origin":"Assigned","RelativeOrder":100,"Role":"RECORD QUALIFIER","StandardLength":60,"Type":"text","VariableLabel":"Evaluator","VariableName":"QEVAL"},{"Core":"Req","DatasetName":"SUPPFTNH","DomainCode":"FT","Origin":"Protocol","RelativeOrder":10,"Role":"IDENTIFIER","StandardLength":15,"Type":"text","VariableLabel":"Study Identifier","VariableName":"STUDYID"},{"ControlledTerminology":"DOMAIN","Core":"Req","DatasetName":"SUPPFTNH","Derivation":"Domain abbreviation from where data originated","DerivationType":"Computation","DomainCode":"FT","Origin":"Assigned","RelativeOrder":20,"Role":"IDENTIFIER","StandardLength":4,"Type":"text","VariableLabel":"Related Domain Abbreviation","VariableName":"RDOMAIN"},{"ComputationalMethodOID":"USUBJ","Core":"Req","DatasetName":"SUPPFTNH","DerivationType":"Computation","DomainCode":"FT","Origin":"Derived","RelativeOrder":30,"Role":"IDENTIFIER","StandardLength":25,"Type":"text","VariableLabel":"Unique Subject Identifier","VariableName":"USUBJID"},{"Core":"Exp","DatasetName":"SUPPFTNH","DomainCode":"FT","Origin":"Assigned","RelativeOrder":40,"Role":"IDENTIFIER","StandardLength":8,"Type":"text","VariableLabel":"Identifying Variable","VariableName":"IDVAR"},{"Core":"Exp","DatasetName":"SUPPFTNH","Derivation":"Value of IDVAR in related domain","DerivationType":"Computation","DomainCode":"FT","Origin":"Derived","RelativeOrder":50,"Role":"IDENTIFIER","StandardLength":30,"Type":"text","VariableLabel":"Identifying Variable Value","VariableName":"IDVARVAL"},{"Core":"Req","DatasetName":"SUPPFTNH","DomainCode":"FT","Origin":"Assigned","RelativeOrder":60,"Role":"TOPIC","StandardLength":8,"Type":"text","VariableLabel":"Qualifier Variable Name","VariableName":"QNAM"},{"Core":"Req","DatasetName":"SUPPFTNH","DomainCode":"FT","Origin":"Assigned","RelativeOrder":70,"Role":"SYNONYM QUALIFIER","StandardLength":40,"Type":"text","VariableLabel":"Qualifier Variable Label","VariableName":"QLABEL"},{"Core":"Req","DatasetName":"SUPPFTNH","DomainCode":"FT","RelativeOrder":80,"Role":"RESULT QUALIFIER","StandardLength":200,"Type":"text","VariableLabel":"Data Value","VariableName":"QVAL"},{"ControlledTerminology":"ORIGIN","Core":"Req","DatasetName":"SUPPFTNH","DomainCode":"FT","Origin":"Assigned","RelativeOrder":90,"Role":"RECORD QUALIFIER","StandardLength":25,"Type":"text","VariableLabel":"Origin","VariableName":"QORIG"},{"ControlledTerminology":"EVAL","Core":"Exp","DatasetName":"SUPPFTNH","DomainCode":"FT","Origin":"Assigned","RelativeOrder":100,"Role":"RECORD QUALIFIER","StandardLength":60,"Type":"text","VariableLabel":"Evaluator","VariableName":"QEVAL"},{"Core":"Req","DatasetName":"SUPPFTSD","DomainCode":"FT","Origin":"Protocol","RelativeOrder":10,"Role":"IDENTIFIER","StandardLength":15,"Type":"text","VariableLabel":"Study Identifier","VariableName":"STUDYID"},{"ControlledTerminology":"DOMAIN","Core":"Req","DatasetName":"SUPPFTSD","Derivation":"Domain abbreviation from where data originated","DerivationType":"Computation","DomainCode":"FT","Origin":"Assigned","RelativeOrder":20,"Role":"IDENTIFIER","StandardLength":4,"Type":"text","VariableLabel":"Related Domain Abbreviation","VariableName":"RDOMAIN"},{"ComputationalMethodOID":"USUBJ","Core":"Req","DatasetName":"SUPPFTSD","DerivationType":"Computation","DomainCode":"FT","Origin":"Derived","RelativeOrder":30,"Role":"IDENTIFIER","StandardLength":25,"Type":"text","VariableLabel":"Unique Subject Identifier","VariableName":"USUBJID"},{"Core":"Exp","DatasetName":"SUPPFTSD","DomainCode":"FT","Origin":"Assigned","RelativeOrder":40,"Role":"IDENTIFIER","StandardLength":8,"Type":"text","VariableLabel":"Identifying Variable","VariableName":"IDVAR"},{"Core":"Exp","DatasetName":"SUPPFTSD","Derivation":"Value of IDVAR in related domain","DerivationType":"Computation","DomainCode":"FT","Origin":"Derived","RelativeOrder":50,"Role":"IDENTIFIER","StandardLength":30,"Type":"text","VariableLabel":"Identifying Variable Value","VariableName":"IDVARVAL"},{"Core":"Req","DatasetName":"SUPPFTSD","DomainCode":"FT","Origin":"Assigned","RelativeOrder":60,"Role":"TOPIC","StandardLength":8,"Type":"text","VariableLabel":"Qualifier Variable Name","VariableName":"QNAM"},{"Core":"Req","DatasetName":"SUPPFTSD","DomainCode":"FT","Origin":"Assigned","RelativeOrder":70,"Role":"SYNONYM QUALIFIER","StandardLength":40,"Type":"text","VariableLabel":"Qualifier Variable Label","VariableName":"QLABEL"},{"Core":"Req","DatasetName":"SUPPFTSD","DomainCode":"FT","RelativeOrder":80,"Role":"RESULT QUALIFIER","StandardLength":200,"Type":"text","VariableLabel":"Data Value","VariableName":"QVAL"},{"ControlledTerminology":"ORIGIN","Core":"Req","DatasetName":"SUPPFTSD","DomainCode":"FT","Origin":"Assigned","RelativeOrder":90,"Role":"RECORD QUALIFIER","StandardLength":25,"Type":"text","VariableLabel":"Origin","VariableName":"QORIG"},{"ControlledTerminology":"EVAL","Core":"Exp","DatasetName":"SUPPFTSD","DomainCode":"FT","Origin":"Assigned","RelativeOrder":100,"Role":"RECORD QUALIFIER","StandardLength":60,"Type":"text","VariableLabel":"Evaluator","VariableName":"QEVAL"},{"Core":"Req","DatasetName":"SUPPHO","DomainCode":"HO","Origin":"Protocol","RelativeOrder":10,"Role":"IDENTIFIER","StandardLength":15,"Type":"text","VariableLabel":"Study Identifier","VariableName":"STUDYID"},{"ControlledTerminology":"DOMAIN","Core":"Req","DatasetName":"SUPPHO","Derivation":"Domain abbreviation from where data originated","DerivationType":"Computation","DomainCode":"HO","Origin":"Assigned","RelativeOrder":20,"Role":"IDENTIFIER","StandardLength":4,"Type":"text","VariableLabel":"Related Domain Abbreviation","VariableName":"RDOMAIN"},{"ComputationalMethodOID":"USUBJ","Core":"Req","DatasetName":"SUPPHO","DerivationType":"Computation","DomainCode":"HO","Origin":"Derived","RelativeOrder":30,"Role":"IDENTIFIER","StandardLength":25,"Type":"text","VariableLabel":"Unique Subject Identifier","VariableName":"USUBJID"},{"Core":"Exp","DatasetName":"SUPPHO","DomainCode":"HO","Origin":"Assigned","RelativeOrder":40,"Role":"IDENTIFIER","StandardLength":8,"Type":"text","VariableLabel":"Identifying Variable","VariableName":"IDVAR"},{"Core":"Exp","DatasetName":"SUPPHO","Derivation":"Value of IDVAR in related domain","DerivationType":"Computation","DomainCode":"HO","Origin":"Derived","RelativeOrder":50,"Role":"IDENTIFIER","StandardLength":30,"Type":"text","VariableLabel":"Identifying Variable Value","VariableName":"IDVARVAL"},{"Core":"Req","DatasetName":"SUPPHO","DomainCode":"HO","Origin":"Assigned","RelativeOrder":60,"Role":"TOPIC","StandardLength":8,"Type":"text","VariableLabel":"Qualifier Variable Name","VariableName":"QNAM"},{"Core":"Req","DatasetName":"SUPPHO","DomainCode":"HO","Origin":"Assigned","RelativeOrder":70,"Role":"SYNONYM QUALIFIER","StandardLength":40,"Type":"text","VariableLabel":"Qualifier Variable Label","VariableName":"QLABEL"},{"Core":"Req","DatasetName":"SUPPHO","DomainCode":"HO","RelativeOrder":80,"Role":"RESULT QUALIFIER","StandardLength":200,"Type":"text","VariableLabel":"Data Value","VariableName":"QVAL"},{"ControlledTerminology":"ORIGIN","Core":"Req","DatasetName":"SUPPHO","DomainCode":"HO","Origin":"Assigned","RelativeOrder":90,"Role":"RECORD QUALIFIER","StandardLength":25,"Type":"text","VariableLabel":"Origin","VariableName":"QORIG"},{"ControlledTerminology":"EVAL","Core":"Exp","DatasetName":"SUPPHO","DomainCode":"HO","Origin":"Assigned","RelativeOrder":100,"Role":"RECORD QUALIFIER","StandardLength":60,"Type":"text","VariableLabel":"Evaluator","VariableName":"QEVAL"},{"Core":"Req","DatasetName":"SUPPIE","DomainCode":"IE","Origin":"Protocol","RelativeOrder":10,"Role":"IDENTIFIER","StandardLength":15,"Type":"text","VariableLabel":"Study Identifier","VariableName":"STUDYID"},{"ControlledTerminology":"DOMAIN","Core":"Req","DatasetName":"SUPPIE","Derivation":"Domain abbreviation from where data originated","DerivationType":"Computation","DomainCode":"IE","Origin":"Assigned","RelativeOrder":20,"Role":"IDENTIFIER","StandardLength":4,"Type":"text","VariableLabel":"Related Domain Abbreviation","VariableName":"RDOMAIN"},{"ComputationalMethodOID":"USUBJ","Core":"Req","DatasetName":"SUPPIE","DerivationType":"Computation","DomainCode":"IE","Origin":"Derived","RelativeOrder":30,"Role":"IDENTIFIER","StandardLength":25,"Type":"text","VariableLabel":"Unique Subject Identifier","VariableName":"USUBJID"},{"Core":"Exp","DatasetName":"SUPPIE","DomainCode":"IE","Origin":"Assigned","RelativeOrder":40,"Role":"IDENTIFIER","StandardLength":8,"Type":"text","VariableLabel":"Identifying Variable","VariableName":"IDVAR"},{"Core":"Exp","DatasetName":"SUPPIE","Derivation":"Value of IDVAR in related domain","DerivationType":"Computation","DomainCode":"IE","Origin":"Derived","RelativeOrder":50,"Role":"IDENTIFIER","StandardLength":30,"Type":"text","VariableLabel":"Identifying Variable Value","VariableName":"IDVARVAL"},{"Core":"Req","DatasetName":"SUPPIE","DomainCode":"IE","Origin":"Assigned","RelativeOrder":60,"Role":"TOPIC","StandardLength":8,"Type":"text","VariableLabel":"Qualifier Variable Name","VariableName":"QNAM"},{"Core":"Req","DatasetName":"SUPPIE","DomainCode":"IE","Origin":"Assigned","RelativeOrder":70,"Role":"SYNONYM QUALIFIER","StandardLength":40,"Type":"text","VariableLabel":"Qualifier Variable Label","VariableName":"QLABEL"},{"Core":"Req","DatasetName":"SUPPIE","DomainCode":"IE","RelativeOrder":80,"Role":"RESULT QUALIFIER","StandardLength":200,"Type":"text","VariableLabel":"Data Value","VariableName":"QVAL"},{"ControlledTerminology":"ORIGIN","Core":"Req","DatasetName":"SUPPIE","DomainCode":"IE","Origin":"Assigned","RelativeOrder":90,"Role":"RECORD QUALIFIER","StandardLength":25,"Type":"text","VariableLabel":"Origin","VariableName":"QORIG"},{"ControlledTerminology":"EVAL","Core":"Exp","DatasetName":"SUPPIE","DomainCode":"IE","Origin":"Assigned","RelativeOrder":100,"Role":"RECORD QUALIFIER","StandardLength":60,"Type":"text","VariableLabel":"Evaluator","VariableName":"QEVAL"},{"Core":"Req","DatasetName":"SUPPIS","DomainCode":"IS","Origin":"Protocol","RelativeOrder":10,"Role":"IDENTIFIER","StandardLength":15,"Type":"text","VariableLabel":"Study Identifier","VariableName":"STUDYID"},{"ControlledTerminology":"DOMAIN","Core":"Req","DatasetName":"SUPPIS","Derivation":"Domain abbreviation from where data originated","DerivationType":"Computation","DomainCode":"IS","Origin":"Assigned","RelativeOrder":20,"Role":"IDENTIFIER","StandardLength":4,"Type":"text","VariableLabel":"Related Domain Abbreviation","VariableName":"RDOMAIN"},{"ComputationalMethodOID":"USUBJ","Core":"Req","DatasetName":"SUPPIS","DerivationType":"Computation","DomainCode":"IS","Origin":"Derived","RelativeOrder":30,"Role":"IDENTIFIER","StandardLength":25,"Type":"text","VariableLabel":"Unique Subject Identifier","VariableName":"USUBJID"},{"Core":"Exp","DatasetName":"SUPPIS","DomainCode":"IS","Origin":"Assigned","RelativeOrder":40,"Role":"IDENTIFIER","StandardLength":8,"Type":"text","VariableLabel":"Identifying Variable","VariableName":"IDVAR"},{"Core":"Exp","DatasetName":"SUPPIS","Derivation":"Value of IDVAR in related domain","DerivationType":"Computation","DomainCode":"IS","Origin":"Derived","RelativeOrder":50,"Role":"IDENTIFIER","StandardLength":30,"Type":"text","VariableLabel":"Identifying Variable Value","VariableName":"IDVARVAL"},{"Core":"Req","DatasetName":"SUPPIS","DomainCode":"IS","Origin":"Assigned","RelativeOrder":60,"Role":"TOPIC","StandardLength":8,"Type":"text","VariableLabel":"Qualifier Variable Name","VariableName":"QNAM"},{"Core":"Req","DatasetName":"SUPPIS","DomainCode":"IS","Origin":"Assigned","RelativeOrder":70,"Role":"SYNONYM QUALIFIER","StandardLength":40,"Type":"text","VariableLabel":"Qualifier Variable Label","VariableName":"QLABEL"},{"Core":"Req","DatasetName":"SUPPIS","DomainCode":"IS","RelativeOrder":80,"Role":"RESULT QUALIFIER","StandardLength":200,"Type":"text","VariableLabel":"Data Value","VariableName":"QVAL"},{"ControlledTerminology":"ORIGIN","Core":"Req","DatasetName":"SUPPIS","DomainCode":"IS","Origin":"Assigned","RelativeOrder":90,"Role":"RECORD QUALIFIER","StandardLength":25,"Type":"text","VariableLabel":"Origin","VariableName":"QORIG"},{"ControlledTerminology":"EVAL","Core":"Exp","DatasetName":"SUPPIS","DomainCode":"IS","Origin":"Assigned","RelativeOrder":100,"Role":"RECORD QUALIFIER","StandardLength":60,"Type":"text","VariableLabel":"Evaluator","VariableName":"QEVAL"},{"Core":"Req","DatasetName":"SUPPLB","DomainCode":"LB","Origin":"Protocol","RelativeOrder":10,"Role":"IDENTIFIER","StandardLength":15,"Type":"text","VariableLabel":"Study Identifier","VariableName":"STUDYID"},{"ControlledTerminology":"DOMAIN","Core":"Req","DatasetName":"SUPPLB","Derivation":"Domain abbreviation from where data originated","DerivationType":"Computation","DomainCode":"LB","Origin":"Assigned","RelativeOrder":20,"Role":"IDENTIFIER","StandardLength":4,"Type":"text","VariableLabel":"Related Domain Abbreviation","VariableName":"RDOMAIN"},{"ComputationalMethodOID":"USUBJ","Core":"Req","DatasetName":"SUPPLB","DerivationType":"Computation","DomainCode":"LB","Origin":"Derived","RelativeOrder":30,"Role":"IDENTIFIER","StandardLength":25,"Type":"text","VariableLabel":"Unique Subject Identifier","VariableName":"USUBJID"},{"Core":"Exp","DatasetName":"SUPPLB","DomainCode":"LB","Origin":"Assigned","RelativeOrder":40,"Role":"IDENTIFIER","StandardLength":8,"Type":"text","VariableLabel":"Identifying Variable","VariableName":"IDVAR"},{"Core":"Exp","DatasetName":"SUPPLB","Derivation":"Value of IDVAR in related domain","DerivationType":"Computation","DomainCode":"LB","Origin":"Derived","RelativeOrder":50,"Role":"IDENTIFIER","StandardLength":30,"Type":"text","VariableLabel":"Identifying Variable Value","VariableName":"IDVARVAL"},{"Core":"Req","DatasetName":"SUPPLB","DomainCode":"LB","Origin":"Assigned","RelativeOrder":60,"Role":"TOPIC","StandardLength":8,"Type":"text","VariableLabel":"Qualifier Variable Name","VariableName":"QNAM"},{"Core":"Req","DatasetName":"SUPPLB","DomainCode":"LB","Origin":"Assigned","RelativeOrder":70,"Role":"SYNONYM QUALIFIER","StandardLength":40,"Type":"text","VariableLabel":"Qualifier Variable Label","VariableName":"QLABEL"},{"Core":"Req","DatasetName":"SUPPLB","DomainCode":"LB","RelativeOrder":80,"Role":"RESULT QUALIFIER","StandardLength":200,"Type":"text","VariableLabel":"Data Value","VariableName":"QVAL"},{"ControlledTerminology":"ORIGIN","Core":"Req","DatasetName":"SUPPLB","DomainCode":"LB","Origin":"Assigned","RelativeOrder":90,"Role":"RECORD QUALIFIER","StandardLength":25,"Type":"text","VariableLabel":"Origin","VariableName":"QORIG"},{"ControlledTerminology":"EVAL","Core":"Exp","DatasetName":"SUPPLB","DomainCode":"LB","Origin":"Assigned","RelativeOrder":100,"Role":"RECORD QUALIFIER","StandardLength":60,"Type":"text","VariableLabel":"Evaluator","VariableName":"QEVAL"},{"Core":"Req","DatasetName":"SUPPLBUS","DomainCode":"LBUS","Origin":"Protocol","RelativeOrder":10,"Role":"IDENTIFIER","StandardLength":15,"Type":"text","VariableLabel":"Study Identifier","VariableName":"STUDYID"},{"ControlledTerminology":"DOMAIN","Core":"Req","DatasetName":"SUPPLBUS","Derivation":"Domain abbreviation from where data originated","DerivationType":"Computation","DomainCode":"LBUS","Origin":"Assigned","RelativeOrder":20,"Role":"IDENTIFIER","StandardLength":4,"Type":"text","VariableLabel":"Related Domain Abbreviation","VariableName":"RDOMAIN"},{"ComputationalMethodOID":"USUBJ","Core":"Req","DatasetName":"SUPPLBUS","DerivationType":"Computation","DomainCode":"LBUS","Origin":"Derived","RelativeOrder":30,"Role":"IDENTIFIER","StandardLength":25,"Type":"text","VariableLabel":"Unique Subject Identifier","VariableName":"USUBJID"},{"Core":"Exp","DatasetName":"SUPPLBUS","DomainCode":"LBUS","Origin":"Assigned","RelativeOrder":40,"Role":"IDENTIFIER","StandardLength":8,"Type":"text","VariableLabel":"Identifying Variable","VariableName":"IDVAR"},{"Core":"Exp","DatasetName":"SUPPLBUS","Derivation":"Value of IDVAR in related domain","DerivationType":"Computation","DomainCode":"LBUS","Origin":"Derived","RelativeOrder":50,"Role":"IDENTIFIER","StandardLength":30,"Type":"text","VariableLabel":"Identifying Variable Value","VariableName":"IDVARVAL"},{"Core":"Req","DatasetName":"SUPPLBUS","DomainCode":"LBUS","Origin":"Assigned","RelativeOrder":60,"Role":"TOPIC","StandardLength":8,"Type":"text","VariableLabel":"Qualifier Variable Name","VariableName":"QNAM"},{"Core":"Req","DatasetName":"SUPPLBUS","DomainCode":"LBUS","Origin":"Assigned","RelativeOrder":70,"Role":"SYNONYM QUALIFIER","StandardLength":40,"Type":"text","VariableLabel":"Qualifier Variable Label","VariableName":"QLABEL"},{"Core":"Req","DatasetName":"SUPPLBUS","DomainCode":"LBUS","RelativeOrder":80,"Role":"RESULT QUALIFIER","StandardLength":200,"Type":"text","VariableLabel":"Data Value","VariableName":"QVAL"},{"ControlledTerminology":"ORIGIN","Core":"Req","DatasetName":"SUPPLBUS","DomainCode":"LBUS","Origin":"Assigned","RelativeOrder":90,"Role":"RECORD QUALIFIER","StandardLength":25,"Type":"text","VariableLabel":"Origin","VariableName":"QORIG"},{"ControlledTerminology":"EVAL","Core":"Exp","DatasetName":"SUPPLBUS","DomainCode":"LBUS","Origin":"Assigned","RelativeOrder":100,"Role":"RECORD QUALIFIER","StandardLength":60,"Type":"text","VariableLabel":"Evaluator","VariableName":"QEVAL"},{"Core":"Req","DatasetName":"SUPPMH","DomainCode":"MH","Origin":"Protocol","RelativeOrder":10,"Role":"IDENTIFIER","StandardLength":15,"Type":"text","VariableLabel":"Study Identifier","VariableName":"STUDYID"},{"ControlledTerminology":"DOMAIN","Core":"Req","DatasetName":"SUPPMH","Derivation":"Domain abbreviation from where data originated","DerivationType":"Computation","DomainCode":"MH","Origin":"Assigned","RelativeOrder":20,"Role":"IDENTIFIER","StandardLength":4,"Type":"text","VariableLabel":"Related Domain Abbreviation","VariableName":"RDOMAIN"},{"ComputationalMethodOID":"USUBJ","Core":"Req","DatasetName":"SUPPMH","DerivationType":"Computation","DomainCode":"MH","Origin":"Derived","RelativeOrder":30,"Role":"IDENTIFIER","StandardLength":25,"Type":"text","VariableLabel":"Unique Subject Identifier","VariableName":"USUBJID"},{"Core":"Exp","DatasetName":"SUPPMH","DomainCode":"MH","Origin":"Assigned","RelativeOrder":40,"Role":"IDENTIFIER","StandardLength":8,"Type":"text","VariableLabel":"Identifying Variable","VariableName":"IDVAR"},{"Core":"Exp","DatasetName":"SUPPMH","Derivation":"Value of IDVAR in related domain","DerivationType":"Computation","DomainCode":"MH","Origin":"Derived","RelativeOrder":50,"Role":"IDENTIFIER","StandardLength":30,"Type":"text","VariableLabel":"Identifying Variable Value","VariableName":"IDVARVAL"},{"Core":"Req","DatasetName":"SUPPMH","DomainCode":"MH","Origin":"Assigned","RelativeOrder":60,"Role":"TOPIC","StandardLength":8,"Type":"text","VariableLabel":"Qualifier Variable Name","VariableName":"QNAM"},{"Core":"Req","DatasetName":"SUPPMH","DomainCode":"MH","Origin":"Assigned","RelativeOrder":70,"Role":"SYNONYM QUALIFIER","StandardLength":40,"Type":"text","VariableLabel":"Qualifier Variable Label","VariableName":"QLABEL"},{"Core":"Req","DatasetName":"SUPPMH","DomainCode":"MH","RelativeOrder":80,"Role":"RESULT QUALIFIER","StandardLength":200,"Type":"text","VariableLabel":"Data Value","VariableName":"QVAL"},{"ControlledTerminology":"ORIGIN","Core":"Req","DatasetName":"SUPPMH","DomainCode":"MH","Origin":"Assigned","RelativeOrder":90,"Role":"RECORD QUALIFIER","StandardLength":25,"Type":"text","VariableLabel":"Origin","VariableName":"QORIG"},{"ControlledTerminology":"EVAL","Core":"Exp","DatasetName":"SUPPMH","DomainCode":"MH","Origin":"Assigned","RelativeOrder":100,"Role":"RECORD QUALIFIER","StandardLength":60,"Type":"text","VariableLabel":"Evaluator","VariableName":"QEVAL"},{"Core":"Req","DatasetName":"SUPPMI","DomainCode":"MI","Origin":"Protocol","RelativeOrder":10,"Role":"IDENTIFIER","StandardLength":15,"Type":"text","VariableLabel":"Study Identifier","VariableName":"STUDYID"},{"ControlledTerminology":"DOMAIN","Core":"Req","DatasetName":"SUPPMI","Derivation":"Domain abbreviation from where data originated","DerivationType":"Computation","DomainCode":"MI","Origin":"Assigned","RelativeOrder":20,"Role":"IDENTIFIER","StandardLength":4,"Type":"text","VariableLabel":"Related Domain Abbreviation","VariableName":"RDOMAIN"},{"ComputationalMethodOID":"USUBJ","Core":"Req","DatasetName":"SUPPMI","DerivationType":"Computation","DomainCode":"MI","Origin":"Derived","RelativeOrder":30,"Role":"IDENTIFIER","StandardLength":25,"Type":"text","VariableLabel":"Unique Subject Identifier","VariableName":"USUBJID"},{"Core":"Exp","DatasetName":"SUPPMI","DomainCode":"MI","Origin":"Assigned","RelativeOrder":40,"Role":"IDENTIFIER","StandardLength":8,"Type":"text","VariableLabel":"Identifying Variable","VariableName":"IDVAR"},{"Core":"Exp","DatasetName":"SUPPMI","Derivation":"Value of IDVAR in related domain","DerivationType":"Computation","DomainCode":"MI","Origin":"Derived","RelativeOrder":50,"Role":"IDENTIFIER","StandardLength":30,"Type":"text","VariableLabel":"Identifying Variable Value","VariableName":"IDVARVAL"},{"Core":"Req","DatasetName":"SUPPMI","DomainCode":"MI","Origin":"Assigned","RelativeOrder":60,"Role":"TOPIC","StandardLength":8,"Type":"text","VariableLabel":"Qualifier Variable Name","VariableName":"QNAM"},{"Core":"Req","DatasetName":"SUPPMI","DomainCode":"MI","Origin":"Assigned","RelativeOrder":70,"Role":"SYNONYM QUALIFIER","StandardLength":40,"Type":"text","VariableLabel":"Qualifier Variable Label","VariableName":"QLABEL"},{"Core":"Req","DatasetName":"SUPPMI","DomainCode":"MI","RelativeOrder":80,"Role":"RESULT QUALIFIER","StandardLength":200,"Type":"text","VariableLabel":"Data Value","VariableName":"QVAL"},{"ControlledTerminology":"ORIGIN","Core":"Req","DatasetName":"SUPPMI","DomainCode":"MI","Origin":"Assigned","RelativeOrder":90,"Role":"RECORD QUALIFIER","StandardLength":25,"Type":"text","VariableLabel":"Origin","VariableName":"QORIG"},{"ControlledTerminology":"EVAL","Core":"Exp","DatasetName":"SUPPMI","DomainCode":"MI","Origin":"Assigned","RelativeOrder":100,"Role":"RECORD QUALIFIER","StandardLength":60,"Type":"text","VariableLabel":"Evaluator","VariableName":"QEVAL"},{"Core":"Req","DatasetName":"SUPPML","DomainCode":"ML","Origin":"Protocol","RelativeOrder":10,"Role":"IDENTIFIER","StandardLength":15,"Type":"text","VariableLabel":"Study Identifier","VariableName":"STUDYID"},{"ControlledTerminology":"DOMAIN","Core":"Req","DatasetName":"SUPPML","Derivation":"Domain abbreviation from where data originated","DerivationType":"Computation","DomainCode":"ML","Origin":"Assigned","RelativeOrder":20,"Role":"IDENTIFIER","StandardLength":4,"Type":"text","VariableLabel":"Related Domain Abbreviation","VariableName":"RDOMAIN"},{"ComputationalMethodOID":"USUBJ","Core":"Req","DatasetName":"SUPPML","DerivationType":"Computation","DomainCode":"ML","Origin":"Derived","RelativeOrder":30,"Role":"IDENTIFIER","StandardLength":25,"Type":"text","VariableLabel":"Unique Subject Identifier","VariableName":"USUBJID"},{"Core":"Exp","DatasetName":"SUPPML","DomainCode":"ML","Origin":"Assigned","RelativeOrder":40,"Role":"IDENTIFIER","StandardLength":8,"Type":"text","VariableLabel":"Identifying Variable","VariableName":"IDVAR"},{"Core":"Exp","DatasetName":"SUPPML","Derivation":"Value of IDVAR in related domain","DerivationType":"Computation","DomainCode":"ML","Origin":"Derived","RelativeOrder":50,"Role":"IDENTIFIER","StandardLength":30,"Type":"text","VariableLabel":"Identifying Variable Value","VariableName":"IDVARVAL"},{"Core":"Req","DatasetName":"SUPPML","DomainCode":"ML","Origin":"Assigned","RelativeOrder":60,"Role":"TOPIC","StandardLength":8,"Type":"text","VariableLabel":"Qualifier Variable Name","VariableName":"QNAM"},{"Core":"Req","DatasetName":"SUPPML","DomainCode":"ML","Origin":"Assigned","RelativeOrder":70,"Role":"SYNONYM QUALIFIER","StandardLength":40,"Type":"text","VariableLabel":"Qualifier Variable Label","VariableName":"QLABEL"},{"Core":"Req","DatasetName":"SUPPML","DomainCode":"ML","RelativeOrder":80,"Role":"RESULT QUALIFIER","StandardLength":200,"Type":"text","VariableLabel":"Data Value","VariableName":"QVAL"},{"ControlledTerminology":"ORIGIN","Core":"Req","DatasetName":"SUPPML","DomainCode":"ML","Origin":"Assigned","RelativeOrder":90,"Role":"RECORD QUALIFIER","StandardLength":25,"Type":"text","VariableLabel":"Origin","VariableName":"QORIG"},{"ControlledTerminology":"EVAL","Core":"Exp","DatasetName":"SUPPML","DomainCode":"ML","Origin":"Assigned","RelativeOrder":100,"Role":"RECORD QUALIFIER","StandardLength":60,"Type":"text","VariableLabel":"Evaluator","VariableName":"QEVAL"},{"Core":"Req","DatasetName":"SUPPMO","DomainCode":"MO","Origin":"Protocol","RelativeOrder":10,"Role":"IDENTIFIER","StandardLength":15,"Type":"text","VariableLabel":"Study Identifier","VariableName":"STUDYID"},{"ControlledTerminology":"DOMAIN","Core":"Req","DatasetName":"SUPPMO","Derivation":"Domain abbreviation from where data originated","DerivationType":"Computation","DomainCode":"MO","Origin":"Assigned","RelativeOrder":20,"Role":"IDENTIFIER","StandardLength":4,"Type":"text","VariableLabel":"Related Domain Abbreviation","VariableName":"RDOMAIN"},{"ComputationalMethodOID":"USUBJ","Core":"Req","DatasetName":"SUPPMO","DerivationType":"Computation","DomainCode":"MO","Origin":"Derived","RelativeOrder":30,"Role":"IDENTIFIER","StandardLength":25,"Type":"text","VariableLabel":"Unique Subject Identifier","VariableName":"USUBJID"},{"Core":"Exp","DatasetName":"SUPPMO","DomainCode":"MO","Origin":"Assigned","RelativeOrder":40,"Role":"IDENTIFIER","StandardLength":8,"Type":"text","VariableLabel":"Identifying Variable","VariableName":"IDVAR"},{"Core":"Exp","DatasetName":"SUPPMO","Derivation":"Value of IDVAR in related domain","DerivationType":"Computation","DomainCode":"MO","Origin":"Derived","RelativeOrder":50,"Role":"IDENTIFIER","StandardLength":30,"Type":"text","VariableLabel":"Identifying Variable Value","VariableName":"IDVARVAL"},{"Core":"Req","DatasetName":"SUPPMO","DomainCode":"MO","Origin":"Assigned","RelativeOrder":60,"Role":"TOPIC","StandardLength":8,"Type":"text","VariableLabel":"Qualifier Variable Name","VariableName":"QNAM"},{"Core":"Req","DatasetName":"SUPPMO","DomainCode":"MO","Origin":"Assigned","RelativeOrder":70,"Role":"SYNONYM QUALIFIER","StandardLength":40,"Type":"text","VariableLabel":"Qualifier Variable Label","VariableName":"QLABEL"},{"Core":"Req","DatasetName":"SUPPMO","DomainCode":"MO","RelativeOrder":80,"Role":"RESULT QUALIFIER","StandardLength":200,"Type":"text","VariableLabel":"Data Value","VariableName":"QVAL"},{"ControlledTerminology":"ORIGIN","Core":"Req","DatasetName":"SUPPMO","DomainCode":"MO","Origin":"Assigned","RelativeOrder":90,"Role":"RECORD QUALIFIER","StandardLength":25,"Type":"text","VariableLabel":"Origin","VariableName":"QORIG"},{"ControlledTerminology":"EVAL","Core":"Exp","DatasetName":"SUPPMO","DomainCode":"MO","Origin":"Assigned","RelativeOrder":100,"Role":"RECORD QUALIFIER","StandardLength":60,"Type":"text","VariableLabel":"Evaluator","VariableName":"QEVAL"},{"Core":"Req","DatasetName":"SUPPNV","DomainCode":"NV","Origin":"Protocol","RelativeOrder":10,"Role":"IDENTIFIER","StandardLength":15,"Type":"text","VariableLabel":"Study Identifier","VariableName":"STUDYID"},{"ControlledTerminology":"DOMAIN","Core":"Req","DatasetName":"SUPPNV","Derivation":"Domain abbreviation from where data originated","DerivationType":"Computation","DomainCode":"NV","Origin":"Assigned","RelativeOrder":20,"Role":"IDENTIFIER","StandardLength":4,"Type":"text","VariableLabel":"Related Domain Abbreviation","VariableName":"RDOMAIN"},{"ComputationalMethodOID":"USUBJ","Core":"Req","DatasetName":"SUPPNV","DerivationType":"Computation","DomainCode":"NV","Origin":"Derived","RelativeOrder":30,"Role":"IDENTIFIER","StandardLength":25,"Type":"text","VariableLabel":"Unique Subject Identifier","VariableName":"USUBJID"},{"Core":"Exp","DatasetName":"SUPPNV","DomainCode":"NV","Origin":"Assigned","RelativeOrder":40,"Role":"IDENTIFIER","StandardLength":8,"Type":"text","VariableLabel":"Identifying Variable","VariableName":"IDVAR"},{"Core":"Exp","DatasetName":"SUPPNV","Derivation":"Value of IDVAR in related domain","DerivationType":"Computation","DomainCode":"NV","Origin":"Derived","RelativeOrder":50,"Role":"IDENTIFIER","StandardLength":30,"Type":"text","VariableLabel":"Identifying Variable Value","VariableName":"IDVARVAL"},{"Core":"Req","DatasetName":"SUPPNV","DomainCode":"NV","Origin":"Assigned","RelativeOrder":60,"Role":"TOPIC","StandardLength":8,"Type":"text","VariableLabel":"Qualifier Variable Name","VariableName":"QNAM"},{"Core":"Req","DatasetName":"SUPPNV","DomainCode":"NV","Origin":"Assigned","RelativeOrder":70,"Role":"SYNONYM QUALIFIER","StandardLength":40,"Type":"text","VariableLabel":"Qualifier Variable Label","VariableName":"QLABEL"},{"Core":"Req","DatasetName":"SUPPNV","DomainCode":"NV","RelativeOrder":80,"Role":"RESULT QUALIFIER","StandardLength":200,"Type":"text","VariableLabel":"Data Value","VariableName":"QVAL"},{"ControlledTerminology":"ORIGIN","Core":"Req","DatasetName":"SUPPNV","DomainCode":"NV","Origin":"Assigned","RelativeOrder":90,"Role":"RECORD QUALIFIER","StandardLength":25,"Type":"text","VariableLabel":"Origin","VariableName":"QORIG"},{"ControlledTerminology":"EVAL","Core":"Exp","DatasetName":"SUPPNV","DomainCode":"NV","Origin":"Assigned","RelativeOrder":100,"Role":"RECORD QUALIFIER","StandardLength":60,"Type":"text","VariableLabel":"Evaluator","VariableName":"QEVAL"},{"Core":"Req","DatasetName":"SUPPOE","DomainCode":"OE","Origin":"Protocol","RelativeOrder":10,"Role":"IDENTIFIER","StandardLength":15,"Type":"text","VariableLabel":"Study Identifier","VariableName":"STUDYID"},{"ControlledTerminology":"DOMAIN","Core":"Req","DatasetName":"SUPPOE","Derivation":"Domain abbreviation from where data originated","DerivationType":"Computation","DomainCode":"OE","Origin":"Assigned","RelativeOrder":20,"Role":"IDENTIFIER","StandardLength":4,"Type":"text","VariableLabel":"Related Domain Abbreviation","VariableName":"RDOMAIN"},{"ComputationalMethodOID":"USUBJ","Core":"Req","DatasetName":"SUPPOE","DerivationType":"Computation","DomainCode":"OE","Origin":"Derived","RelativeOrder":30,"Role":"IDENTIFIER","StandardLength":25,"Type":"text","VariableLabel":"Unique Subject Identifier","VariableName":"USUBJID"},{"Core":"Exp","DatasetName":"SUPPOE","DomainCode":"OE","Origin":"Assigned","RelativeOrder":40,"Role":"IDENTIFIER","StandardLength":8,"Type":"text","VariableLabel":"Identifying Variable","VariableName":"IDVAR"},{"Core":"Exp","DatasetName":"SUPPOE","Derivation":"Value of IDVAR in related domain","DerivationType":"Computation","DomainCode":"OE","Origin":"Derived","RelativeOrder":50,"Role":"IDENTIFIER","StandardLength":30,"Type":"text","VariableLabel":"Identifying Variable Value","VariableName":"IDVARVAL"},{"Core":"Req","DatasetName":"SUPPOE","DomainCode":"OE","Origin":"Assigned","RelativeOrder":60,"Role":"TOPIC","StandardLength":8,"Type":"text","VariableLabel":"Qualifier Variable Name","VariableName":"QNAM"},{"Core":"Req","DatasetName":"SUPPOE","DomainCode":"OE","Origin":"Assigned","RelativeOrder":70,"Role":"SYNONYM QUALIFIER","StandardLength":40,"Type":"text","VariableLabel":"Qualifier Variable Label","VariableName":"QLABEL"},{"Core":"Req","DatasetName":"SUPPOE","DomainCode":"OE","RelativeOrder":80,"Role":"RESULT QUALIFIER","StandardLength":200,"Type":"text","VariableLabel":"Data Value","VariableName":"QVAL"},{"ControlledTerminology":"ORIGIN","Core":"Req","DatasetName":"SUPPOE","DomainCode":"OE","Origin":"Assigned","RelativeOrder":90,"Role":"RECORD QUALIFIER","StandardLength":25,"Type":"text","VariableLabel":"Origin","VariableName":"QORIG"},{"ControlledTerminology":"EVAL","Core":"Exp","DatasetName":"SUPPOE","DomainCode":"OE","Origin":"Assigned","RelativeOrder":100,"Role":"RECORD QUALIFIER","StandardLength":60,"Type":"text","VariableLabel":"Evaluator","VariableName":"QEVAL"},{"Core":"Req","DatasetName":"SUPPPC","DomainCode":"PC","Origin":"Protocol","RelativeOrder":10,"Role":"IDENTIFIER","StandardLength":15,"Type":"text","VariableLabel":"Study Identifier","VariableName":"STUDYID"},{"ControlledTerminology":"DOMAIN","Core":"Req","DatasetName":"SUPPPC","Derivation":"Domain abbreviation from where data originated","DerivationType":"Computation","DomainCode":"PC","Origin":"Assigned","RelativeOrder":20,"Role":"IDENTIFIER","StandardLength":4,"Type":"text","VariableLabel":"Related Domain Abbreviation","VariableName":"RDOMAIN"},{"ComputationalMethodOID":"USUBJ","Core":"Req","DatasetName":"SUPPPC","DerivationType":"Computation","DomainCode":"PC","Origin":"Derived","RelativeOrder":30,"Role":"IDENTIFIER","StandardLength":25,"Type":"text","VariableLabel":"Unique Subject Identifier","VariableName":"USUBJID"},{"Core":"Exp","DatasetName":"SUPPPC","DomainCode":"PC","Origin":"Assigned","RelativeOrder":40,"Role":"IDENTIFIER","StandardLength":8,"Type":"text","VariableLabel":"Identifying Variable","VariableName":"IDVAR"},{"Core":"Exp","DatasetName":"SUPPPC","Derivation":"Value of IDVAR in related domain","DerivationType":"Computation","DomainCode":"PC","Origin":"Derived","RelativeOrder":50,"Role":"IDENTIFIER","StandardLength":30,"Type":"text","VariableLabel":"Identifying Variable Value","VariableName":"IDVARVAL"},{"Core":"Req","DatasetName":"SUPPPC","DomainCode":"PC","Origin":"Assigned","RelativeOrder":60,"Role":"TOPIC","StandardLength":8,"Type":"text","VariableLabel":"Qualifier Variable Name","VariableName":"QNAM"},{"Core":"Req","DatasetName":"SUPPPC","DomainCode":"PC","Origin":"Assigned","RelativeOrder":70,"Role":"SYNONYM QUALIFIER","StandardLength":40,"Type":"text","VariableLabel":"Qualifier Variable Label","VariableName":"QLABEL"},{"Core":"Req","DatasetName":"SUPPPC","DomainCode":"PC","RelativeOrder":80,"Role":"RESULT QUALIFIER","StandardLength":200,"Type":"text","VariableLabel":"Data Value","VariableName":"QVAL"},{"ControlledTerminology":"ORIGIN","Core":"Req","DatasetName":"SUPPPC","DomainCode":"PC","Origin":"Assigned","RelativeOrder":90,"Role":"RECORD QUALIFIER","StandardLength":25,"Type":"text","VariableLabel":"Origin","VariableName":"QORIG"},{"ControlledTerminology":"EVAL","Core":"Exp","DatasetName":"SUPPPC","DomainCode":"PC","Origin":"Assigned","RelativeOrder":100,"Role":"RECORD QUALIFIER","StandardLength":60,"Type":"text","VariableLabel":"Evaluator","VariableName":"QEVAL"},{"Core":"Req","DatasetName":"SUPPPE","DomainCode":"PE","Origin":"Protocol","RelativeOrder":10,"Role":"IDENTIFIER","StandardLength":15,"Type":"text","VariableLabel":"Study Identifier","VariableName":"STUDYID"},{"ControlledTerminology":"DOMAIN","Core":"Req","DatasetName":"SUPPPE","Derivation":"Domain abbreviation from where data originated","DerivationType":"Computation","DomainCode":"PE","Origin":"Assigned","RelativeOrder":20,"Role":"IDENTIFIER","StandardLength":4,"Type":"text","VariableLabel":"Related Domain Abbreviation","VariableName":"RDOMAIN"},{"ComputationalMethodOID":"USUBJ","Core":"Req","DatasetName":"SUPPPE","DerivationType":"Computation","DomainCode":"PE","Origin":"Derived","RelativeOrder":30,"Role":"IDENTIFIER","StandardLength":25,"Type":"text","VariableLabel":"Unique Subject Identifier","VariableName":"USUBJID"},{"Core":"Exp","DatasetName":"SUPPPE","DomainCode":"PE","Origin":"Assigned","RelativeOrder":40,"Role":"IDENTIFIER","StandardLength":8,"Type":"text","VariableLabel":"Identifying Variable","VariableName":"IDVAR"},{"Core":"Exp","DatasetName":"SUPPPE","Derivation":"Value of IDVAR in related domain","DerivationType":"Computation","DomainCode":"PE","Origin":"Derived","RelativeOrder":50,"Role":"IDENTIFIER","StandardLength":30,"Type":"text","VariableLabel":"Identifying Variable Value","VariableName":"IDVARVAL"},{"Core":"Req","DatasetName":"SUPPPE","DomainCode":"PE","Origin":"Assigned","RelativeOrder":60,"Role":"TOPIC","StandardLength":8,"Type":"text","VariableLabel":"Qualifier Variable Name","VariableName":"QNAM"},{"Core":"Req","DatasetName":"SUPPPE","DomainCode":"PE","Origin":"Assigned","RelativeOrder":70,"Role":"SYNONYM QUALIFIER","StandardLength":40,"Type":"text","VariableLabel":"Qualifier Variable Label","VariableName":"QLABEL"},{"Core":"Req","DatasetName":"SUPPPE","DomainCode":"PE","RelativeOrder":80,"Role":"RESULT QUALIFIER","StandardLength":200,"Type":"text","VariableLabel":"Data Value","VariableName":"QVAL"},{"ControlledTerminology":"ORIGIN","Core":"Req","DatasetName":"SUPPPE","DomainCode":"PE","Origin":"Assigned","RelativeOrder":90,"Role":"RECORD QUALIFIER","StandardLength":25,"Type":"text","VariableLabel":"Origin","VariableName":"QORIG"},{"ControlledTerminology":"EVAL","Core":"Exp","DatasetName":"SUPPPE","DomainCode":"PE","Origin":"Assigned","RelativeOrder":100,"Role":"RECORD QUALIFIER","StandardLength":60,"Type":"text","VariableLabel":"Evaluator","VariableName":"QEVAL"},{"Core":"Req","DatasetName":"SUPPPF","DomainCode":"PF","Origin":"Protocol","RelativeOrder":10,"Role":"IDENTIFIER","StandardLength":15,"Type":"text","VariableLabel":"Study Identifier","VariableName":"STUDYID"},{"ControlledTerminology":"DOMAIN","Core":"Req","DatasetName":"SUPPPF","Derivation":"Domain abbreviation from where data originated","DerivationType":"Computation","DomainCode":"PF","Origin":"Assigned","RelativeOrder":20,"Role":"IDENTIFIER","StandardLength":4,"Type":"text","VariableLabel":"Related Domain Abbreviation","VariableName":"RDOMAIN"},{"ComputationalMethodOID":"USUBJ","Core":"Req","DatasetName":"SUPPPF","DerivationType":"Computation","DomainCode":"PF","Origin":"Derived","RelativeOrder":30,"Role":"IDENTIFIER","StandardLength":25,"Type":"text","VariableLabel":"Unique Subject Identifier","VariableName":"USUBJID"},{"Core":"Exp","DatasetName":"SUPPPF","DomainCode":"PF","Origin":"Assigned","RelativeOrder":40,"Role":"IDENTIFIER","StandardLength":8,"Type":"text","VariableLabel":"Identifying Variable","VariableName":"IDVAR"},{"Core":"Exp","DatasetName":"SUPPPF","Derivation":"Value of IDVAR in related domain","DerivationType":"Computation","DomainCode":"PF","Origin":"Derived","RelativeOrder":50,"Role":"IDENTIFIER","StandardLength":30,"Type":"text","VariableLabel":"Identifying Variable Value","VariableName":"IDVARVAL"},{"Core":"Req","DatasetName":"SUPPPF","DomainCode":"PF","Origin":"Assigned","RelativeOrder":60,"Role":"TOPIC","StandardLength":8,"Type":"text","VariableLabel":"Qualifier Variable Name","VariableName":"QNAM"},{"Core":"Req","DatasetName":"SUPPPF","DomainCode":"PF","Origin":"Assigned","RelativeOrder":70,"Role":"SYNONYM QUALIFIER","StandardLength":40,"Type":"text","VariableLabel":"Qualifier Variable Label","VariableName":"QLABEL"},{"Core":"Req","DatasetName":"SUPPPF","DomainCode":"PF","RelativeOrder":80,"Role":"RESULT QUALIFIER","StandardLength":200,"Type":"text","VariableLabel":"Data Value","VariableName":"QVAL"},{"ControlledTerminology":"ORIGIN","Core":"Req","DatasetName":"SUPPPF","DomainCode":"PF","Origin":"Assigned","RelativeOrder":90,"Role":"RECORD QUALIFIER","StandardLength":25,"Type":"text","VariableLabel":"Origin","VariableName":"QORIG"},{"ControlledTerminology":"EVAL","Core":"Exp","DatasetName":"SUPPPF","DomainCode":"PF","Origin":"Assigned","RelativeOrder":100,"Role":"RECORD QUALIFIER","StandardLength":60,"Type":"text","VariableLabel":"Evaluator","VariableName":"QEVAL"},{"Core":"Req","DatasetName":"SUPPPP","DomainCode":"PP","Origin":"Protocol","RelativeOrder":10,"Role":"IDENTIFIER","StandardLength":15,"Type":"text","VariableLabel":"Study Identifier","VariableName":"STUDYID"},{"ControlledTerminology":"DOMAIN","Core":"Req","DatasetName":"SUPPPP","Derivation":"Domain abbreviation from where data originated","DerivationType":"Computation","DomainCode":"PP","Origin":"Assigned","RelativeOrder":20,"Role":"IDENTIFIER","StandardLength":4,"Type":"text","VariableLabel":"Related Domain Abbreviation","VariableName":"RDOMAIN"},{"ComputationalMethodOID":"USUBJ","Core":"Req","DatasetName":"SUPPPP","DerivationType":"Computation","DomainCode":"PP","Origin":"Derived","RelativeOrder":30,"Role":"IDENTIFIER","StandardLength":25,"Type":"text","VariableLabel":"Unique Subject Identifier","VariableName":"USUBJID"},{"Core":"Exp","DatasetName":"SUPPPP","DomainCode":"PP","Origin":"Assigned","RelativeOrder":40,"Role":"IDENTIFIER","StandardLength":8,"Type":"text","VariableLabel":"Identifying Variable","VariableName":"IDVAR"},{"Core":"Exp","DatasetName":"SUPPPP","Derivation":"Value of IDVAR in related domain","DerivationType":"Computation","DomainCode":"PP","Origin":"Derived","RelativeOrder":50,"Role":"IDENTIFIER","StandardLength":30,"Type":"text","VariableLabel":"Identifying Variable Value","VariableName":"IDVARVAL"},{"Core":"Req","DatasetName":"SUPPPP","DomainCode":"PP","Origin":"Assigned","RelativeOrder":60,"Role":"TOPIC","StandardLength":8,"Type":"text","VariableLabel":"Qualifier Variable Name","VariableName":"QNAM"},{"Core":"Req","DatasetName":"SUPPPP","DomainCode":"PP","Origin":"Assigned","RelativeOrder":70,"Role":"SYNONYM QUALIFIER","StandardLength":40,"Type":"text","VariableLabel":"Qualifier Variable Label","VariableName":"QLABEL"},{"Core":"Req","DatasetName":"SUPPPP","DomainCode":"PP","RelativeOrder":80,"Role":"RESULT QUALIFIER","StandardLength":200,"Type":"text","VariableLabel":"Data Value","VariableName":"QVAL"},{"ControlledTerminology":"ORIGIN","Core":"Req","DatasetName":"SUPPPP","DomainCode":"PP","Origin":"Assigned","RelativeOrder":90,"Role":"RECORD QUALIFIER","StandardLength":25,"Type":"text","VariableLabel":"Origin","VariableName":"QORIG"},{"ControlledTerminology":"EVAL","Core":"Exp","DatasetName":"SUPPPP","DomainCode":"PP","Origin":"Assigned","RelativeOrder":100,"Role":"RECORD QUALIFIER","StandardLength":60,"Type":"text","VariableLabel":"Evaluator","VariableName":"QEVAL"},{"Core":"Req","DatasetName":"SUPPPR","DomainCode":"PR","Origin":"Protocol","RelativeOrder":10,"Role":"IDENTIFIER","StandardLength":15,"Type":"text","VariableLabel":"Study Identifier","VariableName":"STUDYID"},{"ControlledTerminology":"DOMAIN","Core":"Req","DatasetName":"SUPPPR","Derivation":"Domain abbreviation from where data originated","DerivationType":"Computation","DomainCode":"PR","Origin":"Assigned","RelativeOrder":20,"Role":"IDENTIFIER","StandardLength":4,"Type":"text","VariableLabel":"Related Domain Abbreviation","VariableName":"RDOMAIN"},{"ComputationalMethodOID":"USUBJ","Core":"Req","DatasetName":"SUPPPR","DerivationType":"Computation","DomainCode":"PR","Origin":"Derived","RelativeOrder":30,"Role":"IDENTIFIER","StandardLength":25,"Type":"text","VariableLabel":"Unique Subject Identifier","VariableName":"USUBJID"},{"Core":"Exp","DatasetName":"SUPPPR","DomainCode":"PR","Origin":"Assigned","RelativeOrder":40,"Role":"IDENTIFIER","StandardLength":8,"Type":"text","VariableLabel":"Identifying Variable","VariableName":"IDVAR"},{"Core":"Exp","DatasetName":"SUPPPR","Derivation":"Value of IDVAR in related domain","DerivationType":"Computation","DomainCode":"PR","Origin":"Derived","RelativeOrder":50,"Role":"IDENTIFIER","StandardLength":30,"Type":"text","VariableLabel":"Identifying Variable Value","VariableName":"IDVARVAL"},{"Core":"Req","DatasetName":"SUPPPR","DomainCode":"PR","Origin":"Assigned","RelativeOrder":60,"Role":"TOPIC","StandardLength":8,"Type":"text","VariableLabel":"Qualifier Variable Name","VariableName":"QNAM"},{"Core":"Req","DatasetName":"SUPPPR","DomainCode":"PR","Origin":"Assigned","RelativeOrder":70,"Role":"SYNONYM QUALIFIER","StandardLength":40,"Type":"text","VariableLabel":"Qualifier Variable Label","VariableName":"QLABEL"},{"Core":"Req","DatasetName":"SUPPPR","DomainCode":"PR","RelativeOrder":80,"Role":"RESULT QUALIFIER","StandardLength":200,"Type":"text","VariableLabel":"Data Value","VariableName":"QVAL"},{"ControlledTerminology":"ORIGIN","Core":"Req","DatasetName":"SUPPPR","DomainCode":"PR","Origin":"Assigned","RelativeOrder":90,"Role":"RECORD QUALIFIER","StandardLength":25,"Type":"text","VariableLabel":"Origin","VariableName":"QORIG"},{"ControlledTerminology":"EVAL","Core":"Exp","DatasetName":"SUPPPR","DomainCode":"PR","Origin":"Assigned","RelativeOrder":100,"Role":"RECORD QUALIFIER","StandardLength":60,"Type":"text","VariableLabel":"Evaluator","VariableName":"QEVAL"},{"Core":"Req","DatasetName":"SUPPQS","DomainCode":"QS","Origin":"Protocol","RelativeOrder":10,"Role":"IDENTIFIER","StandardLength":15,"Type":"text","VariableLabel":"Study Identifier","VariableName":"STUDYID"},{"ControlledTerminology":"DOMAIN","Core":"Req","DatasetName":"SUPPQS","Derivation":"Domain abbreviation from where data originated","DerivationType":"Computation","DomainCode":"QS","Origin":"Assigned","RelativeOrder":20,"Role":"IDENTIFIER","StandardLength":4,"Type":"text","VariableLabel":"Related Domain Abbreviation","VariableName":"RDOMAIN"},{"ComputationalMethodOID":"USUBJ","Core":"Req","DatasetName":"SUPPQS","DerivationType":"Computation","DomainCode":"QS","Origin":"Derived","RelativeOrder":30,"Role":"IDENTIFIER","StandardLength":25,"Type":"text","VariableLabel":"Unique Subject Identifier","VariableName":"USUBJID"},{"Core":"Exp","DatasetName":"SUPPQS","DomainCode":"QS","Origin":"Assigned","RelativeOrder":40,"Role":"IDENTIFIER","StandardLength":8,"Type":"text","VariableLabel":"Identifying Variable","VariableName":"IDVAR"},{"Core":"Exp","DatasetName":"SUPPQS","Derivation":"Value of IDVAR in related domain","DerivationType":"Computation","DomainCode":"QS","Origin":"Derived","RelativeOrder":50,"Role":"IDENTIFIER","StandardLength":30,"Type":"text","VariableLabel":"Identifying Variable Value","VariableName":"IDVARVAL"},{"Core":"Req","DatasetName":"SUPPQS","DomainCode":"QS","Origin":"Assigned","RelativeOrder":60,"Role":"TOPIC","StandardLength":8,"Type":"text","VariableLabel":"Qualifier Variable Name","VariableName":"QNAM"},{"Core":"Req","DatasetName":"SUPPQS","DomainCode":"QS","Origin":"Assigned","RelativeOrder":70,"Role":"SYNONYM QUALIFIER","StandardLength":40,"Type":"text","VariableLabel":"Qualifier Variable Label","VariableName":"QLABEL"},{"Core":"Req","DatasetName":"SUPPQS","DomainCode":"QS","RelativeOrder":80,"Role":"RESULT QUALIFIER","StandardLength":200,"Type":"text","VariableLabel":"Data Value","VariableName":"QVAL"},{"ControlledTerminology":"ORIGIN","Core":"Req","DatasetName":"SUPPQS","DomainCode":"QS","Origin":"Assigned","RelativeOrder":90,"Role":"RECORD QUALIFIER","StandardLength":25,"Type":"text","VariableLabel":"Origin","VariableName":"QORIG"},{"ControlledTerminology":"EVAL","Core":"Exp","DatasetName":"SUPPQS","DomainCode":"QS","Origin":"Assigned","RelativeOrder":100,"Role":"RECORD QUALIFIER","StandardLength":60,"Type":"text","VariableLabel":"Evaluator","VariableName":"QEVAL"},{"Core":"Req","DatasetName":"SUPPQS3L","DomainCode":"QS","Origin":"Protocol","RelativeOrder":10,"Role":"IDENTIFIER","StandardLength":15,"Type":"text","VariableLabel":"Study Identifier","VariableName":"STUDYID"},{"ControlledTerminology":"DOMAIN","Core":"Req","DatasetName":"SUPPQS3L","Derivation":"Domain abbreviation from where data originated","DerivationType":"Computation","DomainCode":"QS","Origin":"Assigned","RelativeOrder":20,"Role":"IDENTIFIER","StandardLength":4,"Type":"text","VariableLabel":"Related Domain Abbreviation","VariableName":"RDOMAIN"},{"ComputationalMethodOID":"USUBJ","Core":"Req","DatasetName":"SUPPQS3L","DerivationType":"Computation","DomainCode":"QS","Origin":"Derived","RelativeOrder":30,"Role":"IDENTIFIER","StandardLength":25,"Type":"text","VariableLabel":"Unique Subject Identifier","VariableName":"USUBJID"},{"Core":"Exp","DatasetName":"SUPPQS3L","DomainCode":"QS","Origin":"Assigned","RelativeOrder":40,"Role":"IDENTIFIER","StandardLength":8,"Type":"text","VariableLabel":"Identifying Variable","VariableName":"IDVAR"},{"Core":"Exp","DatasetName":"SUPPQS3L","Derivation":"Value of IDVAR in related domain","DerivationType":"Computation","DomainCode":"QS","Origin":"Derived","RelativeOrder":50,"Role":"IDENTIFIER","StandardLength":30,"Type":"text","VariableLabel":"Identifying Variable Value","VariableName":"IDVARVAL"},{"Core":"Req","DatasetName":"SUPPQS3L","DomainCode":"QS","Origin":"Assigned","RelativeOrder":60,"Role":"TOPIC","StandardLength":8,"Type":"text","VariableLabel":"Qualifier Variable Name","VariableName":"QNAM"},{"Core":"Req","DatasetName":"SUPPQS3L","DomainCode":"QS","Origin":"Assigned","RelativeOrder":70,"Role":"SYNONYM QUALIFIER","StandardLength":40,"Type":"text","VariableLabel":"Qualifier Variable Label","VariableName":"QLABEL"},{"Core":"Req","DatasetName":"SUPPQS3L","DomainCode":"QS","RelativeOrder":80,"Role":"RESULT QUALIFIER","StandardLength":200,"Type":"text","VariableLabel":"Data Value","VariableName":"QVAL"},{"ControlledTerminology":"ORIGIN","Core":"Req","DatasetName":"SUPPQS3L","DomainCode":"QS","Origin":"Assigned","RelativeOrder":90,"Role":"RECORD QUALIFIER","StandardLength":25,"Type":"text","VariableLabel":"Origin","VariableName":"QORIG"},{"ControlledTerminology":"EVAL","Core":"Exp","DatasetName":"SUPPQS3L","DomainCode":"QS","Origin":"Assigned","RelativeOrder":100,"Role":"RECORD QUALIFIER","StandardLength":60,"Type":"text","VariableLabel":"Evaluator","VariableName":"QEVAL"},{"Core":"Req","DatasetName":"SUPPQS5L","DomainCode":"QS","Origin":"Protocol","RelativeOrder":10,"Role":"IDENTIFIER","StandardLength":15,"Type":"text","VariableLabel":"Study Identifier","VariableName":"STUDYID"},{"ControlledTerminology":"DOMAIN","Core":"Req","DatasetName":"SUPPQS5L","Derivation":"Domain abbreviation from where data originated","DerivationType":"Computation","DomainCode":"QS","Origin":"Assigned","RelativeOrder":20,"Role":"IDENTIFIER","StandardLength":4,"Type":"text","VariableLabel":"Related Domain Abbreviation","VariableName":"RDOMAIN"},{"ComputationalMethodOID":"USUBJ","Core":"Req","DatasetName":"SUPPQS5L","DerivationType":"Computation","DomainCode":"QS","Origin":"Derived","RelativeOrder":30,"Role":"IDENTIFIER","StandardLength":25,"Type":"text","VariableLabel":"Unique Subject Identifier","VariableName":"USUBJID"},{"Core":"Exp","DatasetName":"SUPPQS5L","DomainCode":"QS","Origin":"Assigned","RelativeOrder":40,"Role":"IDENTIFIER","StandardLength":8,"Type":"text","VariableLabel":"Identifying Variable","VariableName":"IDVAR"},{"Core":"Exp","DatasetName":"SUPPQS5L","Derivation":"Value of IDVAR in related domain","DerivationType":"Computation","DomainCode":"QS","Origin":"Derived","RelativeOrder":50,"Role":"IDENTIFIER","StandardLength":30,"Type":"text","VariableLabel":"Identifying Variable Value","VariableName":"IDVARVAL"},{"Core":"Req","DatasetName":"SUPPQS5L","DomainCode":"QS","Origin":"Assigned","RelativeOrder":60,"Role":"TOPIC","StandardLength":8,"Type":"text","VariableLabel":"Qualifier Variable Name","VariableName":"QNAM"},{"Core":"Req","DatasetName":"SUPPQS5L","DomainCode":"QS","Origin":"Assigned","RelativeOrder":70,"Role":"SYNONYM QUALIFIER","StandardLength":40,"Type":"text","VariableLabel":"Qualifier Variable Label","VariableName":"QLABEL"},{"Core":"Req","DatasetName":"SUPPQS5L","DomainCode":"QS","RelativeOrder":80,"Role":"RESULT QUALIFIER","StandardLength":200,"Type":"text","VariableLabel":"Data Value","VariableName":"QVAL"},{"ControlledTerminology":"ORIGIN","Core":"Req","DatasetName":"SUPPQS5L","DomainCode":"QS","Origin":"Assigned","RelativeOrder":90,"Role":"RECORD QUALIFIER","StandardLength":25,"Type":"text","VariableLabel":"Origin","VariableName":"QORIG"},{"ControlledTerminology":"EVAL","Core":"Exp","DatasetName":"SUPPQS5L","DomainCode":"QS","Origin":"Assigned","RelativeOrder":100,"Role":"RECORD QUALIFIER","StandardLength":60,"Type":"text","VariableLabel":"Evaluator","VariableName":"QEVAL"},{"Core":"Req","DatasetName":"SUPPQSHQ","DomainCode":"QS","Origin":"Protocol","RelativeOrder":10,"Role":"IDENTIFIER","StandardLength":15,"Type":"text","VariableLabel":"Study Identifier","VariableName":"STUDYID"},{"ControlledTerminology":"DOMAIN","Core":"Req","DatasetName":"SUPPQSHQ","Derivation":"Domain abbreviation from where data originated","DerivationType":"Computation","DomainCode":"QS","Origin":"Assigned","RelativeOrder":20,"Role":"IDENTIFIER","StandardLength":4,"Type":"text","VariableLabel":"Related Domain Abbreviation","VariableName":"RDOMAIN"},{"ComputationalMethodOID":"USUBJ","Core":"Req","DatasetName":"SUPPQSHQ","DerivationType":"Computation","DomainCode":"QS","Origin":"Derived","RelativeOrder":30,"Role":"IDENTIFIER","StandardLength":25,"Type":"text","VariableLabel":"Unique Subject Identifier","VariableName":"USUBJID"},{"Core":"Exp","DatasetName":"SUPPQSHQ","DomainCode":"QS","Origin":"Assigned","RelativeOrder":40,"Role":"IDENTIFIER","StandardLength":8,"Type":"text","VariableLabel":"Identifying Variable","VariableName":"IDVAR"},{"Core":"Exp","DatasetName":"SUPPQSHQ","Derivation":"Value of IDVAR in related domain","DerivationType":"Computation","DomainCode":"QS","Origin":"Derived","RelativeOrder":50,"Role":"IDENTIFIER","StandardLength":30,"Type":"text","VariableLabel":"Identifying Variable Value","VariableName":"IDVARVAL"},{"Core":"Req","DatasetName":"SUPPQSHQ","DomainCode":"QS","Origin":"Assigned","RelativeOrder":60,"Role":"TOPIC","StandardLength":8,"Type":"text","VariableLabel":"Qualifier Variable Name","VariableName":"QNAM"},{"Core":"Req","DatasetName":"SUPPQSHQ","DomainCode":"QS","Origin":"Assigned","RelativeOrder":70,"Role":"SYNONYM QUALIFIER","StandardLength":40,"Type":"text","VariableLabel":"Qualifier Variable Label","VariableName":"QLABEL"},{"Core":"Req","DatasetName":"SUPPQSHQ","DomainCode":"QS","RelativeOrder":80,"Role":"RESULT QUALIFIER","StandardLength":200,"Type":"text","VariableLabel":"Data Value","VariableName":"QVAL"},{"ControlledTerminology":"ORIGIN","Core":"Req","DatasetName":"SUPPQSHQ","DomainCode":"QS","Origin":"Assigned","RelativeOrder":90,"Role":"RECORD QUALIFIER","StandardLength":25,"Type":"text","VariableLabel":"Origin","VariableName":"QORIG"},{"ControlledTerminology":"EVAL","Core":"Exp","DatasetName":"SUPPQSHQ","DomainCode":"QS","Origin":"Assigned","RelativeOrder":100,"Role":"RECORD QUALIFIER","StandardLength":60,"Type":"text","VariableLabel":"Evaluator","VariableName":"QEVAL"},{"Core":"Req","DatasetName":"SUPPQSME","DomainCode":"QS","Origin":"Protocol","RelativeOrder":10,"Role":"IDENTIFIER","StandardLength":15,"Type":"text","VariableLabel":"Study Identifier","VariableName":"STUDYID"},{"ControlledTerminology":"DOMAIN","Core":"Req","DatasetName":"SUPPQSME","Derivation":"Domain abbreviation from where data originated","DerivationType":"Computation","DomainCode":"QS","Origin":"Assigned","RelativeOrder":20,"Role":"IDENTIFIER","StandardLength":4,"Type":"text","VariableLabel":"Related Domain Abbreviation","VariableName":"RDOMAIN"},{"ComputationalMethodOID":"USUBJ","Core":"Req","DatasetName":"SUPPQSME","DerivationType":"Computation","DomainCode":"QS","Origin":"Derived","RelativeOrder":30,"Role":"IDENTIFIER","StandardLength":25,"Type":"text","VariableLabel":"Unique Subject Identifier","VariableName":"USUBJID"},{"Core":"Exp","DatasetName":"SUPPQSME","DomainCode":"QS","Origin":"Assigned","RelativeOrder":40,"Role":"IDENTIFIER","StandardLength":8,"Type":"text","VariableLabel":"Identifying Variable","VariableName":"IDVAR"},{"Core":"Exp","DatasetName":"SUPPQSME","Derivation":"Value of IDVAR in related domain","DerivationType":"Computation","DomainCode":"QS","Origin":"Derived","RelativeOrder":50,"Role":"IDENTIFIER","StandardLength":30,"Type":"text","VariableLabel":"Identifying Variable Value","VariableName":"IDVARVAL"},{"Core":"Req","DatasetName":"SUPPQSME","DomainCode":"QS","Origin":"Assigned","RelativeOrder":60,"Role":"TOPIC","StandardLength":8,"Type":"text","VariableLabel":"Qualifier Variable Name","VariableName":"QNAM"},{"Core":"Req","DatasetName":"SUPPQSME","DomainCode":"QS","Origin":"Assigned","RelativeOrder":70,"Role":"SYNONYM QUALIFIER","StandardLength":40,"Type":"text","VariableLabel":"Qualifier Variable Label","VariableName":"QLABEL"},{"Core":"Req","DatasetName":"SUPPQSME","DomainCode":"QS","RelativeOrder":80,"Role":"RESULT QUALIFIER","StandardLength":200,"Type":"text","VariableLabel":"Data Value","VariableName":"QVAL"},{"ControlledTerminology":"ORIGIN","Core":"Req","DatasetName":"SUPPQSME","DomainCode":"QS","Origin":"Assigned","RelativeOrder":90,"Role":"RECORD QUALIFIER","StandardLength":25,"Type":"text","VariableLabel":"Origin","VariableName":"QORIG"},{"ControlledTerminology":"EVAL","Core":"Exp","DatasetName":"SUPPQSME","DomainCode":"QS","Origin":"Assigned","RelativeOrder":100,"Role":"RECORD QUALIFIER","StandardLength":60,"Type":"text","VariableLabel":"Evaluator","VariableName":"QEVAL"},{"Core":"Req","DatasetName":"SUPPQSPI","DomainCode":"QS","Origin":"Protocol","RelativeOrder":10,"Role":"IDENTIFIER","StandardLength":15,"Type":"text","VariableLabel":"Study Identifier","VariableName":"STUDYID"},{"ControlledTerminology":"DOMAIN","Core":"Req","DatasetName":"SUPPQSPI","Derivation":"Domain abbreviation from where data originated","DerivationType":"Computation","DomainCode":"QS","Origin":"Assigned","RelativeOrder":20,"Role":"IDENTIFIER","StandardLength":4,"Type":"text","VariableLabel":"Related Domain Abbreviation","VariableName":"RDOMAIN"},{"ComputationalMethodOID":"USUBJ","Core":"Req","DatasetName":"SUPPQSPI","DerivationType":"Computation","DomainCode":"QS","Origin":"Derived","RelativeOrder":30,"Role":"IDENTIFIER","StandardLength":25,"Type":"text","VariableLabel":"Unique Subject Identifier","VariableName":"USUBJID"},{"Core":"Exp","DatasetName":"SUPPQSPI","DomainCode":"QS","Origin":"Assigned","RelativeOrder":40,"Role":"IDENTIFIER","StandardLength":8,"Type":"text","VariableLabel":"Identifying Variable","VariableName":"IDVAR"},{"Core":"Exp","DatasetName":"SUPPQSPI","Derivation":"Value of IDVAR in related domain","DerivationType":"Computation","DomainCode":"QS","Origin":"Derived","RelativeOrder":50,"Role":"IDENTIFIER","StandardLength":30,"Type":"text","VariableLabel":"Identifying Variable Value","VariableName":"IDVARVAL"},{"Core":"Req","DatasetName":"SUPPQSPI","DomainCode":"QS","Origin":"Assigned","RelativeOrder":60,"Role":"TOPIC","StandardLength":8,"Type":"text","VariableLabel":"Qualifier Variable Name","VariableName":"QNAM"},{"Core":"Req","DatasetName":"SUPPQSPI","DomainCode":"QS","Origin":"Assigned","RelativeOrder":70,"Role":"SYNONYM QUALIFIER","StandardLength":40,"Type":"text","VariableLabel":"Qualifier Variable Label","VariableName":"QLABEL"},{"Core":"Req","DatasetName":"SUPPQSPI","DomainCode":"QS","RelativeOrder":80,"Role":"RESULT QUALIFIER","StandardLength":200,"Type":"text","VariableLabel":"Data Value","VariableName":"QVAL"},{"ControlledTerminology":"ORIGIN","Core":"Req","DatasetName":"SUPPQSPI","DomainCode":"QS","Origin":"Assigned","RelativeOrder":90,"Role":"RECORD QUALIFIER","StandardLength":25,"Type":"text","VariableLabel":"Origin","VariableName":"QORIG"},{"ControlledTerminology":"EVAL","Core":"Exp","DatasetName":"SUPPQSPI","DomainCode":"QS","Origin":"Assigned","RelativeOrder":100,"Role":"RECORD QUALIFIER","StandardLength":60,"Type":"text","VariableLabel":"Evaluator","VariableName":"QEVAL"},{"Core":"Req","DatasetName":"SUPPRE","DomainCode":"RE","Origin":"Protocol","RelativeOrder":10,"Role":"IDENTIFIER","StandardLength":15,"Type":"text","VariableLabel":"Study Identifier","VariableName":"STUDYID"},{"ControlledTerminology":"DOMAIN","Core":"Req","DatasetName":"SUPPRE","Derivation":"Domain abbreviation from where data originated","DerivationType":"Computation","DomainCode":"RE","Origin":"Assigned","RelativeOrder":20,"Role":"IDENTIFIER","StandardLength":4,"Type":"text","VariableLabel":"Related Domain Abbreviation","VariableName":"RDOMAIN"},{"ComputationalMethodOID":"USUBJ","Core":"Req","DatasetName":"SUPPRE","DerivationType":"Computation","DomainCode":"RE","Origin":"Derived","RelativeOrder":30,"Role":"IDENTIFIER","StandardLength":25,"Type":"text","VariableLabel":"Unique Subject Identifier","VariableName":"USUBJID"},{"Core":"Exp","DatasetName":"SUPPRE","DomainCode":"RE","Origin":"Assigned","RelativeOrder":40,"Role":"IDENTIFIER","StandardLength":8,"Type":"text","VariableLabel":"Identifying Variable","VariableName":"IDVAR"},{"Core":"Exp","DatasetName":"SUPPRE","Derivation":"Value of IDVAR in related domain","DerivationType":"Computation","DomainCode":"RE","Origin":"Derived","RelativeOrder":50,"Role":"IDENTIFIER","StandardLength":30,"Type":"text","VariableLabel":"Identifying Variable Value","VariableName":"IDVARVAL"},{"Core":"Req","DatasetName":"SUPPRE","DomainCode":"RE","Origin":"Assigned","RelativeOrder":60,"Role":"TOPIC","StandardLength":8,"Type":"text","VariableLabel":"Qualifier Variable Name","VariableName":"QNAM"},{"Core":"Req","DatasetName":"SUPPRE","DomainCode":"RE","Origin":"Assigned","RelativeOrder":70,"Role":"SYNONYM QUALIFIER","StandardLength":40,"Type":"text","VariableLabel":"Qualifier Variable Label","VariableName":"QLABEL"},{"Core":"Req","DatasetName":"SUPPRE","DomainCode":"RE","RelativeOrder":80,"Role":"RESULT QUALIFIER","StandardLength":200,"Type":"text","VariableLabel":"Data Value","VariableName":"QVAL"},{"ControlledTerminology":"ORIGIN","Core":"Req","DatasetName":"SUPPRE","DomainCode":"RE","Origin":"Assigned","RelativeOrder":90,"Role":"RECORD QUALIFIER","StandardLength":25,"Type":"text","VariableLabel":"Origin","VariableName":"QORIG"},{"ControlledTerminology":"EVAL","Core":"Exp","DatasetName":"SUPPRE","DomainCode":"RE","Origin":"Assigned","RelativeOrder":100,"Role":"RECORD QUALIFIER","StandardLength":60,"Type":"text","VariableLabel":"Evaluator","VariableName":"QEVAL"},{"Core":"Req","DatasetName":"SUPPRS","DomainCode":"RS","Origin":"Protocol","RelativeOrder":10,"Role":"IDENTIFIER","StandardLength":15,"Type":"text","VariableLabel":"Study Identifier","VariableName":"STUDYID"},{"ControlledTerminology":"DOMAIN","Core":"Req","DatasetName":"SUPPRS","Derivation":"Domain abbreviation from where data originated","DerivationType":"Computation","DomainCode":"RS","Origin":"Assigned","RelativeOrder":20,"Role":"IDENTIFIER","StandardLength":4,"Type":"text","VariableLabel":"Related Domain Abbreviation","VariableName":"RDOMAIN"},{"ComputationalMethodOID":"USUBJ","Core":"Req","DatasetName":"SUPPRS","DerivationType":"Computation","DomainCode":"RS","Origin":"Derived","RelativeOrder":30,"Role":"IDENTIFIER","StandardLength":25,"Type":"text","VariableLabel":"Unique Subject Identifier","VariableName":"USUBJID"},{"Core":"Exp","DatasetName":"SUPPRS","DomainCode":"RS","Origin":"Assigned","RelativeOrder":40,"Role":"IDENTIFIER","StandardLength":8,"Type":"text","VariableLabel":"Identifying Variable","VariableName":"IDVAR"},{"Core":"Exp","DatasetName":"SUPPRS","Derivation":"Value of IDVAR in related domain","DerivationType":"Computation","DomainCode":"RS","Origin":"Derived","RelativeOrder":50,"Role":"IDENTIFIER","StandardLength":30,"Type":"text","VariableLabel":"Identifying Variable Value","VariableName":"IDVARVAL"},{"Core":"Req","DatasetName":"SUPPRS","DomainCode":"RS","Origin":"Assigned","RelativeOrder":60,"Role":"TOPIC","StandardLength":8,"Type":"text","VariableLabel":"Qualifier Variable Name","VariableName":"QNAM"},{"Core":"Req","DatasetName":"SUPPRS","DomainCode":"RS","Origin":"Assigned","RelativeOrder":70,"Role":"SYNONYM QUALIFIER","StandardLength":40,"Type":"text","VariableLabel":"Qualifier Variable Label","VariableName":"QLABEL"},{"Core":"Req","DatasetName":"SUPPRS","DomainCode":"RS","RelativeOrder":80,"Role":"RESULT QUALIFIER","StandardLength":200,"Type":"text","VariableLabel":"Data Value","VariableName":"QVAL"},{"ControlledTerminology":"ORIGIN","Core":"Req","DatasetName":"SUPPRS","DomainCode":"RS","Origin":"Assigned","RelativeOrder":90,"Role":"RECORD QUALIFIER","StandardLength":25,"Type":"text","VariableLabel":"Origin","VariableName":"QORIG"},{"ControlledTerminology":"EVAL","Core":"Exp","DatasetName":"SUPPRS","DomainCode":"RS","Origin":"Assigned","RelativeOrder":100,"Role":"RECORD QUALIFIER","StandardLength":60,"Type":"text","VariableLabel":"Evaluator","VariableName":"QEVAL"},{"Core":"Req","DatasetName":"SUPPRSNS","DomainCode":"RS","Origin":"Protocol","RelativeOrder":10,"Role":"IDENTIFIER","StandardLength":15,"Type":"text","VariableLabel":"Study Identifier","VariableName":"STUDYID"},{"ControlledTerminology":"DOMAIN","Core":"Req","DatasetName":"SUPPRSNS","Derivation":"Domain abbreviation from where data originated","Derivatio